Folder: Ophiomastix_wendtii_orientation/data/Reflectance_measurements/Reflectance_2019_material/13 (part 2)

File: 13_3.txt
Unit Serial No : 240-IM0P2424-EU
Integration Time : 10 ms
Time Average: 10
Binning Average: 2
FFT Smoothing: 0%
Project Name : RPS900-R
Sample Name :  SM240-IMOP2424-EU
Measurement No : 1
Measurement Time : 06/03/2019   14:53:32

Wavelength(nm)	Wavenumber(1/cm)	Transmittance(%)
300.0000      	33333.3    	2.40393
302.0000      	33112.6    	2.01996
304.0000      	32894.7    	1.05325
306.0000      	32679.7    	2.01002
308.0000      	32467.5    	1.80027
310.0000      	32258.1    	2.18153
312.0000      	32051.3    	1.28091
314.0000      	31847.1    	0.79041
316.0000      	31645.6    	1.69873
318.0000      	31446.5    	0.81646
320.0000      	31250    	0.58210
322.0000      	31055.9    	1.10877
324.0000      	30864.2    	0.40996
326.0000      	30674.8    	0.52097
328.0000      	30487.8    	0.34321
330.0000      	30303    	0.55852
332.0000      	30120.5    	1.24681
334.0000      	29940.1    	1.56036
336.0000      	29761.9    	0.82797
338.0000      	29585.8    	1.07530
340.0000      	29411.8    	0.58032
342.0000      	29239.8    	0.95270
344.0000      	29069.8    	0.98328
346.0000      	28901.7    	0.90011
348.0000      	28735.6    	0.97859
350.0000      	28571.4    	1.06810
352.0000      	28409.1    	0.67383
354.0000      	28248.6    	0.80888
356.0000      	28089.9    	0.80140
358.0000      	27933    	0.56614
360.0000      	27777.8    	0.87712
362.0000      	27624.3    	0.69359
364.0000      	27472.5    	0.66777
366.0000      	27322.4    	0.68779
368.0000      	27173.9    	0.49071
370.0000      	27027    	0.70071
372.0000      	26881.7    	0.85110
374.0000      	26738    	0.54272
376.0000      	26595.7    	0.68882
378.0000      	26455    	0.61427
380.0000      	26315.8    	0.59530
382.0000      	26178    	0.50204
384.0000      	26041.7    	0.54206
386.0000      	25906.7    	0.69668
388.0000      	25773.2    	0.76420
390.0000      	25641    	0.68018
392.0000      	25510.2    	0.70681
394.0000      	25380.7    	0.76169
396.0000      	25252.5    	0.75852
398.0000      	25125.6    	0.67072
400.0000      	25000    	0.67861
402.0000      	24875.6    	0.68326
404.0000      	24752.5    	0.71199
406.0000      	24630.5    	0.68139
408.0000      	24509.8    	0.67602
410.0000      	24390.2    	0.68522
412.0000      	24271.8    	0.62460
414.0000      	24154.6    	0.66626
416.0000      	24038.5    	0.66845
418.0000      	23923.4    	0.56427
420.0000      	23809.5    	0.62401
422.0000      	23696.7    	0.63828
424.0000      	23584.9    	0.70612
426.0000      	23474.2    	0.73497
428.0000      	23364.5    	0.66944
430.0000      	23255.8    	0.67965
432.0000      	23148.1    	0.68703
434.0000      	23041.5    	0.64473
436.0000      	22935.8    	0.63585
438.0000      	22831.1    	0.71916
440.0000      	22727.3    	0.66574
442.0000      	22624.4    	0.68576
444.0000      	22522.5    	0.78245
446.0000      	22421.5    	0.57935
448.0000      	22321.4    	0.65130
450.0000      	22222.2    	0.59874
452.0000      	22123.9    	0.53409
454.0000      	22026.4    	0.65545
456.0000      	21929.8    	0.72100
458.0000      	21834.1    	0.66231
460.0000      	21739.1    	0.64050
462.0000      	21645    	0.56317
464.0000      	21551.7    	0.53550
466.0000      	21459.2    	0.61854
468.0000      	21367.5    	0.61666
470.0000      	21276.6    	0.67495
472.0000      	21186.4    	0.65565
474.0000      	21097    	0.59036
476.0000      	21008.4    	0.59331
478.0000      	20920.5    	0.62053
480.0000      	20833.3    	0.61283
482.0000      	20746.9    	0.64644
484.0000      	20661.2    	0.63973
486.0000      	20576.1    	0.62672
488.0000      	20491.8    	0.58376
490.0000      	20408.2    	0.60268
492.0000      	20325.2    	0.62038
494.0000      	20242.9    	0.65361
496.0000      	20161.3    	0.61344
498.0000      	20080.3    	0.58966
500.0000      	20000    	0.63494
502.0000      	19920.3    	0.63512
504.0000      	19841.3    	0.61257
506.0000      	19762.8    	0.64063
508.0000      	19685    	0.63117
510.0000      	19607.8    	0.63151
512.0000      	19531.2    	0.62886
514.0000      	19455.3    	0.60723
516.0000      	19379.8    	0.61965
518.0000      	19305    	0.61689
520.0000      	19230.8    	0.61711
522.0000      	19157.1    	0.63459
524.0000      	19084    	0.62203
526.0000      	19011.4    	0.58717
528.0000      	18939.4    	0.61581
530.0000      	18867.9    	0.64929
532.0000      	18797    	0.61975
534.0000      	18726.6    	0.63937
536.0000      	18656.7    	0.61685
538.0000      	18587.4    	0.62295
540.0000      	18518.5    	0.62543
542.0000      	18450.2    	0.59887
544.0000      	18382.4    	0.61902
546.0000      	18315    	0.61905
548.0000      	18248.2    	0.61662
550.0000      	18181.8    	0.65266
552.0000      	18115.9    	0.62788
554.0000      	18050.5    	0.65953
556.0000      	17985.6    	0.65309
558.0000      	17921.1    	0.63971
560.0000      	17857.1    	0.63036
562.0000      	17793.6    	0.61408
564.0000      	17730.5    	0.63397
566.0000      	17667.8    	0.63735
568.0000      	17605.6    	0.62871
570.0000      	17543.9    	0.66497
572.0000      	17482.5    	0.60320
574.0000      	17421.6    	0.64093
576.0000      	17361.1    	0.64378
578.0000      	17301    	0.59748
580.0000      	17241.4    	0.66802
582.0000      	17182.1    	0.67149
584.0000      	17123.3    	0.63758
586.0000      	17064.8    	0.62237
588.0000      	17006.8    	0.61519
590.0000      	16949.2    	0.62570
592.0000      	16891.9    	0.63605
594.0000      	16835    	0.67742
596.0000      	16778.5    	0.65634
598.0000      	16722.4    	0.68969
600.0000      	16666.7    	0.61495
602.0000      	16611.3    	0.66062
604.0000      	16556.3    	0.68136
606.0000      	16501.7    	0.66551
608.0000      	16447.4    	0.62442
610.0000      	16393.4    	0.66100
612.0000      	16339.9    	0.60429
614.0000      	16286.6    	0.62923
616.0000      	16233.8    	0.64861
618.0000      	16181.2    	0.61799
620.0000      	16129    	0.66284
622.0000      	16077.2    	0.63699
624.0000      	16025.6    	0.60718
626.0000      	15974.4    	0.69653
628.0000      	15923.6    	0.62122
630.0000      	15873    	0.69483
632.0000      	15822.8    	0.69010
634.0000      	15772.9    	0.66384
636.0000      	15723.3    	0.61143
638.0000      	15674    	0.62743
640.0000      	15625    	0.70172
642.0000      	15576.3    	0.63866
644.0000      	15528    	0.60692
646.0000      	15479.9    	0.67160
648.0000      	15432.1    	0.67282
650.0000      	15384.6    	0.70028
652.0000      	15337.4    	0.62203
654.0000      	15290.5    	0.65124
656.0000      	15243.9    	0.73003
658.0000      	15197.6    	0.74988
660.0000      	15151.5    	0.69278
662.0000      	15105.7    	0.65670
664.0000      	15060.2    	0.64817
666.0000      	15015    	0.64240
668.0000      	14970.1    	0.65264
670.0000      	14925.4    	0.70653
672.0000      	14881    	0.64954
674.0000      	14836.8    	0.67999
676.0000      	14792.9    	0.70946
678.0000      	14749.3    	0.74236
680.0000      	14705.9    	0.64789
682.0000      	14662.8    	0.55391
684.0000      	14619.9    	0.64027
686.0000      	14577.3    	0.70713
688.0000      	14534.9    	0.64913
690.0000      	14492.8    	0.69311
692.0000      	14450.9    	0.63428
694.0000      	14409.2    	0.67256
696.0000      	14367.8    	0.67999
698.0000      	14326.6    	0.73559
700.0000      	14285.7    	0.73337
702.0000      	14245    	0.74235
704.0000      	14204.5    	0.80409
706.0000      	14164.3    	0.72339
708.0000      	14124.3    	0.73212
710.0000      	14084.5    	0.83823
712.0000      	14044.9    	0.78302
714.0000      	14005.6    	0.74742
716.0000      	13966.5    	0.77523
718.0000      	13927.6    	0.76920
720.0000      	13888.9    	0.68819
722.0000      	13850.4    	0.74426
724.0000      	13812.2    	0.69421
726.0000      	13774.1    	0.85756
728.0000      	13736.3    	0.81924
730.0000      	13698.6    	0.77803
732.0000      	13661.2    	0.86971
734.0000      	13624    	0.88206
736.0000      	13587    	0.77621
738.0000      	13550.1    	0.88439
740.0000      	13513.5    	0.89151
742.0000      	13477.1    	0.82812
744.0000      	13440.9    	0.83678
746.0000      	13404.8    	0.80198
748.0000      	13369    	0.88690
750.0000      	13333.3    	0.94419
752.0000      	13297.9    	0.88018
754.0000      	13262.6    	0.89060
756.0000      	13227.5    	0.94231
758.0000      	13192.6    	0.78341
760.0000      	13157.9    	0.91759
762.0000      	13123.4    	0.97293
764.0000      	13089    	0.97093
766.0000      	13054.8    	0.88005
768.0000      	13020.8    	0.81360
770.0000      	12987    	0.65948
772.0000      	12953.4    	0.97868
774.0000      	12919.9    	1.01008
776.0000      	12886.6    	1.00238
778.0000      	12853.5    	0.75028
780.0000      	12820.5    	1.10137
782.0000      	12787.7    	1.05841
784.0000      	12755.1    	1.29887
786.0000      	12722.6    	1.12068
788.0000      	12690.4    	1.10633
790.0000      	12658.2    	1.11645
792.0000      	12626.3    	0.88084
794.0000      	12594.5    	1.06412
796.0000      	12562.8    	1.11171
798.0000      	12531.3    	1.03939
800.0000      	12500    	1.03229