Folder: Ophiomastix_wendtii_orientation/data/Reflectance_measurements/Reflectance_2019_material/13_white (part 2)

File: 13_w_3.txt
Unit Serial No : 240-IM0P2424-EU
Integration Time : 10 ms
Time Average: 10
Binning Average: 2
FFT Smoothing: 0%
Project Name : RPS900-R
Sample Name :  SM240-IMOP2424-EU
Measurement No : 1
Measurement Time : 06/03/2019   14:54:27

Wavelength(nm)	Wavenumber(1/cm)	Transmittance(%)
300.0000      	33333.3    	15.26205
302.0000      	33112.6    	15.52896
304.0000      	32894.7    	15.47432
306.0000      	32679.7    	13.69075
308.0000      	32467.5    	13.73298
310.0000      	32258.1    	12.87130
312.0000      	32051.3    	11.58232
314.0000      	31847.1    	12.47473
316.0000      	31645.6    	12.06110
318.0000      	31446.5    	11.03219
320.0000      	31250    	10.78214
322.0000      	31055.9    	9.94328
324.0000      	30864.2    	9.59380
326.0000      	30674.8    	9.53324
328.0000      	30487.8    	9.10524
330.0000      	30303    	9.34781
332.0000      	30120.5    	9.22902
334.0000      	29940.1    	9.23282
336.0000      	29761.9    	9.03154
338.0000      	29585.8    	9.15235
340.0000      	29411.8    	9.56277
342.0000      	29239.8    	9.70785
344.0000      	29069.8    	9.61874
346.0000      	28901.7    	10.18105
348.0000      	28735.6    	10.34526
350.0000      	28571.4    	10.52574
352.0000      	28409.1    	10.92570
354.0000      	28248.6    	11.17641
356.0000      	28089.9    	11.86799
358.0000      	27933    	12.53464
360.0000      	27777.8    	12.81839
362.0000      	27624.3    	13.75675
364.0000      	27472.5    	14.01418
366.0000      	27322.4    	14.32036
368.0000      	27173.9    	15.31023
370.0000      	27027    	15.92355
372.0000      	26881.7    	16.48815
374.0000      	26738    	17.23851
376.0000      	26595.7    	18.14229
378.0000      	26455    	18.94419
380.0000      	26315.8    	20.46815
382.0000      	26178    	21.12175
384.0000      	26041.7    	22.13424
386.0000      	25906.7    	23.37800
388.0000      	25773.2    	24.36331
390.0000      	25641    	25.47732
392.0000      	25510.2    	26.37849
394.0000      	25380.7    	27.67282
396.0000      	25252.5    	28.99440
398.0000      	25125.6    	30.51720
400.0000      	25000    	32.28652
402.0000      	24875.6    	34.16383
404.0000      	24752.5    	36.44150
406.0000      	24630.5    	39.29314
408.0000      	24509.8    	41.99860
410.0000      	24390.2    	44.73493
412.0000      	24271.8    	47.21776
414.0000      	24154.6    	50.40336
416.0000      	24038.5    	52.60693
418.0000      	23923.4    	54.18990
420.0000      	23809.5    	55.17191
422.0000      	23696.7    	55.93981
424.0000      	23584.9    	57.24497
426.0000      	23474.2    	58.04975
428.0000      	23364.5    	58.97828
430.0000      	23255.8    	59.71207
432.0000      	23148.1    	61.06935
434.0000      	23041.5    	61.80269
436.0000      	22935.8    	62.51426
438.0000      	22831.1    	63.02755
440.0000      	22727.3    	63.37965
442.0000      	22624.4    	63.53797
444.0000      	22522.5    	63.38026
446.0000      	22421.5    	63.02934
448.0000      	22321.4    	62.08032
450.0000      	22222.2    	61.40996
452.0000      	22123.9    	61.27001
454.0000      	22026.4    	61.26048
456.0000      	21929.8    	61.32864
458.0000      	21834.1    	61.24216
460.0000      	21739.1    	61.43606
462.0000      	21645    	61.51261
464.0000      	21551.7    	61.34223
466.0000      	21459.2    	61.50424
468.0000      	21367.5    	61.50574
470.0000      	21276.6    	61.60990
472.0000      	21186.4    	61.79809
474.0000      	21097    	62.40684
476.0000      	21008.4    	62.63771
478.0000      	20920.5    	62.64997
480.0000      	20833.3    	62.89424
482.0000      	20746.9    	63.18183
484.0000      	20661.2    	63.50403
486.0000      	20576.1    	63.61599
488.0000      	20491.8    	63.86694
490.0000      	20408.2    	64.09789
492.0000      	20325.2    	64.44306
494.0000      	20242.9    	64.78553
496.0000      	20161.3    	64.89497
498.0000      	20080.3    	65.19364
500.0000      	20000    	65.33383
502.0000      	19920.3    	65.20526
504.0000      	19841.3    	65.44984
506.0000      	19762.8    	65.22496
508.0000      	19685    	64.92364
510.0000      	19607.8    	64.45715
512.0000      	19531.2    	63.92301
514.0000      	19455.3    	63.40166
516.0000      	19379.8    	62.51617
518.0000      	19305    	61.70884
520.0000      	19230.8    	61.15990
522.0000      	19157.1    	60.16958
524.0000      	19084    	59.15670
526.0000      	19011.4    	58.57468
528.0000      	18939.4    	57.79615
530.0000      	18867.9    	57.08417
532.0000      	18797    	56.75656
534.0000      	18726.6    	56.45058
536.0000      	18656.7    	56.08192
538.0000      	18587.4    	55.84356
540.0000      	18518.5    	55.75518
542.0000      	18450.2    	55.62755
544.0000      	18382.4    	55.51738
546.0000      	18315    	55.32341
548.0000      	18248.2    	55.13024
550.0000      	18181.8    	54.94128
552.0000      	18115.9    	54.43400
554.0000      	18050.5    	53.81142
556.0000      	17985.6    	53.17290
558.0000      	17921.1    	52.55070
560.0000      	17857.1    	51.50927
562.0000      	17793.6    	50.73105
564.0000      	17730.5    	49.93268
566.0000      	17667.8    	49.17078
568.0000      	17605.6    	48.78425
570.0000      	17543.9    	48.46460
572.0000      	17482.5    	48.45220
574.0000      	17421.6    	48.84710
576.0000      	17361.1    	49.33574
578.0000      	17301    	50.32934
580.0000      	17241.4    	51.65126
582.0000      	17182.1    	52.89506
584.0000      	17123.3    	54.14827
586.0000      	17064.8    	55.56447
588.0000      	17006.8    	56.45036
590.0000      	16949.2    	57.46515
592.0000      	16891.9    	58.24572
594.0000      	16835    	58.63866
596.0000      	16778.5    	59.14018
598.0000      	16722.4    	59.56358
600.0000      	16666.7    	59.56118
602.0000      	16611.3    	59.87359
604.0000      	16556.3    	59.82558
606.0000      	16501.7    	59.73289
608.0000      	16447.4    	59.65852
610.0000      	16393.4    	59.77974
612.0000      	16339.9    	59.99603
614.0000      	16286.6    	59.81482
616.0000      	16233.8    	59.74723
618.0000      	16181.2    	59.69706
620.0000      	16129    	59.70788
622.0000      	16077.2    	59.64588
624.0000      	16025.6    	59.65507
626.0000      	15974.4    	59.81294
628.0000      	15923.6    	60.02570
630.0000      	15873    	60.20186
632.0000      	15822.8    	60.46071
634.0000      	15772.9    	60.68920
636.0000      	15723.3    	61.05579
638.0000      	15674    	61.47730
640.0000      	15625    	61.87436
642.0000      	15576.3    	62.33242
644.0000      	15528    	63.18914
646.0000      	15479.9    	63.59806
648.0000      	15432.1    	64.25395
650.0000      	15384.6    	65.01147
652.0000      	15337.4    	65.78254
654.0000      	15290.5    	66.27584
656.0000      	15243.9    	67.20452
658.0000      	15197.6    	67.74246
660.0000      	15151.5    	68.41304
662.0000      	15105.7    	68.98415
664.0000      	15060.2    	69.31401
666.0000      	15015    	69.52055
668.0000      	14970.1    	69.53802
670.0000      	14925.4    	69.93504
672.0000      	14881    	69.77919
674.0000      	14836.8    	69.64924
676.0000      	14792.9    	69.64433
678.0000      	14749.3    	69.76353
680.0000      	14705.9    	69.45329
682.0000      	14662.8    	69.39057
684.0000      	14619.9    	69.18121
686.0000      	14577.3    	68.41772
688.0000      	14534.9    	67.98129
690.0000      	14492.8    	68.21291
692.0000      	14450.9    	67.99953
694.0000      	14409.2    	68.21390
696.0000      	14367.8    	68.24998
698.0000      	14326.6    	67.94537
700.0000      	14285.7    	68.20953
702.0000      	14245    	68.12630
704.0000      	14204.5    	67.94099
706.0000      	14164.3    	67.80156
708.0000      	14124.3    	67.63931
710.0000      	14084.5    	67.52889
712.0000      	14044.9    	67.36868
714.0000      	14005.6    	67.21203
716.0000      	13966.5    	67.40079
718.0000      	13927.6    	67.63086
720.0000      	13888.9    	67.85218
722.0000      	13850.4    	68.05188
724.0000      	13812.2    	68.62101
726.0000      	13774.1    	69.17919
728.0000      	13736.3    	69.27261
730.0000      	13698.6    	69.48972
732.0000      	13661.2    	69.95824
734.0000      	13624    	70.62514
736.0000      	13587    	71.08302
738.0000      	13550.1    	71.53767
740.0000      	13513.5    	72.45167
742.0000      	13477.1    	72.86002
744.0000      	13440.9    	74.17899
746.0000      	13404.8    	75.16282
748.0000      	13369    	75.56751
750.0000      	13333.3    	76.22188
752.0000      	13297.9    	76.96432
754.0000      	13262.6    	78.31626
756.0000      	13227.5    	78.93102
758.0000      	13192.6    	79.54992
760.0000      	13157.9    	80.63479
762.0000      	13123.4    	81.25305
764.0000      	13089    	81.70747
766.0000      	13054.8    	81.86810
768.0000      	13020.8    	82.04702
770.0000      	12987    	82.66795
772.0000      	12953.4    	83.09249
774.0000      	12919.9    	83.32651
776.0000      	12886.6    	82.82117
778.0000      	12853.5    	83.10694
780.0000      	12820.5    	83.18722
782.0000      	12787.7    	83.25110
784.0000      	12755.1    	83.54895
786.0000      	12722.6    	83.68848
788.0000      	12690.4    	83.50069
790.0000      	12658.2    	83.73457
792.0000      	12626.3    	82.80232
794.0000      	12594.5    	82.89880
796.0000      	12562.8    	83.49336
798.0000      	12531.3    	83.24714
800.0000      	12500    	83.52529