Folder: Ophiomastix_wendtii_orientation/data/Reflectance_measurements/Reflectance_2019_material/25 (part 2)

File: 25_3 .txt
Unit Serial No : 240-IM0P2424-EU
Integration Time : 10 ms
Time Average: 10
Binning Average: 2
FFT Smoothing: 0%
Project Name : RPS900-R
Sample Name :  SM240-IMOP2424-EU
Measurement No : 1
Measurement Time : 06/03/2019   14:49:20

Wavelength(nm)	Wavenumber(1/cm)	Transmittance(%)
300.0000      	33333.3    	13.22054
302.0000      	33112.6    	13.07278
304.0000      	32894.7    	13.20566
306.0000      	32679.7    	11.99521
308.0000      	32467.5    	12.36705
310.0000      	32258.1    	10.65275
312.0000      	32051.3    	9.45091
314.0000      	31847.1    	9.98608
316.0000      	31645.6    	10.21265
318.0000      	31446.5    	9.64200
320.0000      	31250    	9.55490
322.0000      	31055.9    	8.77424
324.0000      	30864.2    	8.59710
326.0000      	30674.8    	8.77613
328.0000      	30487.8    	8.39562
330.0000      	30303    	8.11776
332.0000      	30120.5    	8.50846
334.0000      	29940.1    	8.70474
336.0000      	29761.9    	8.17715
338.0000      	29585.8    	8.63179
340.0000      	29411.8    	8.33797
342.0000      	29239.8    	8.65767
344.0000      	29069.8    	8.44315
346.0000      	28901.7    	8.51905
348.0000      	28735.6    	8.58599
350.0000      	28571.4    	9.45170
352.0000      	28409.1    	9.30990
354.0000      	28248.6    	9.77654
356.0000      	28089.9    	10.21361
358.0000      	27933    	10.74562
360.0000      	27777.8    	11.22172
362.0000      	27624.3    	11.39603
364.0000      	27472.5    	11.72317
366.0000      	27322.4    	12.05865
368.0000      	27173.9    	12.77632
370.0000      	27027    	13.06822
372.0000      	26881.7    	13.23555
374.0000      	26738    	14.11060
376.0000      	26595.7    	14.62956
378.0000      	26455    	15.14995
380.0000      	26315.8    	16.08935
382.0000      	26178    	16.71938
384.0000      	26041.7    	17.62160
386.0000      	25906.7    	18.70377
388.0000      	25773.2    	19.18663
390.0000      	25641    	20.33772
392.0000      	25510.2    	20.82317
394.0000      	25380.7    	21.63704
396.0000      	25252.5    	22.66260
398.0000      	25125.6    	23.96332
400.0000      	25000    	25.51869
402.0000      	24875.6    	26.63577
404.0000      	24752.5    	28.11712
406.0000      	24630.5    	29.92258
408.0000      	24509.8    	32.06185
410.0000      	24390.2    	33.93941
412.0000      	24271.8    	35.29705
414.0000      	24154.6    	37.21004
416.0000      	24038.5    	38.25142
418.0000      	23923.4    	39.25986
420.0000      	23809.5    	39.85113
422.0000      	23696.7    	40.47551
424.0000      	23584.9    	41.37960
426.0000      	23474.2    	42.01408
428.0000      	23364.5    	42.55579
430.0000      	23255.8    	42.99988
432.0000      	23148.1    	43.72344
434.0000      	23041.5    	44.19656
436.0000      	22935.8    	44.85461
438.0000      	22831.1    	45.17156
440.0000      	22727.3    	45.41130
442.0000      	22624.4    	45.58664
444.0000      	22522.5    	45.71904
446.0000      	22421.5    	45.42489
448.0000      	22321.4    	44.97827
450.0000      	22222.2    	44.48606
452.0000      	22123.9    	44.72747
454.0000      	22026.4    	44.84591
456.0000      	21929.8    	45.02488
458.0000      	21834.1    	45.13813
460.0000      	21739.1    	45.31078
462.0000      	21645    	45.23392
464.0000      	21551.7    	45.57174
466.0000      	21459.2    	45.88772
468.0000      	21367.5    	46.00840
470.0000      	21276.6    	46.15931
472.0000      	21186.4    	46.57139
474.0000      	21097    	47.13294
476.0000      	21008.4    	47.69330
478.0000      	20920.5    	47.88919
480.0000      	20833.3    	48.17601
482.0000      	20746.9    	48.53399
484.0000      	20661.2    	48.95954
486.0000      	20576.1    	49.34808
488.0000      	20491.8    	49.77629
490.0000      	20408.2    	50.26117
492.0000      	20325.2    	50.48262
494.0000      	20242.9    	50.84994
496.0000      	20161.3    	51.08171
498.0000      	20080.3    	51.45534
500.0000      	20000    	51.63964
502.0000      	19920.3    	51.51375
504.0000      	19841.3    	51.71653
506.0000      	19762.8    	51.66111
508.0000      	19685    	51.15959
510.0000      	19607.8    	50.70306
512.0000      	19531.2    	50.08747
514.0000      	19455.3    	49.49863
516.0000      	19379.8    	48.58169
518.0000      	19305    	47.52057
520.0000      	19230.8    	46.81937
522.0000      	19157.1    	45.72233
524.0000      	19084    	44.65144
526.0000      	19011.4    	43.79595
528.0000      	18939.4    	43.00544
530.0000      	18867.9    	42.22506
532.0000      	18797    	41.61462
534.0000      	18726.6    	41.29895
536.0000      	18656.7    	40.87091
538.0000      	18587.4    	40.45374
540.0000      	18518.5    	40.37965
542.0000      	18450.2    	40.28195
544.0000      	18382.4    	40.17548
546.0000      	18315    	40.06290
548.0000      	18248.2    	39.97804
550.0000      	18181.8    	39.64732
552.0000      	18115.9    	39.23468
554.0000      	18050.5    	38.68877
556.0000      	17985.6    	37.90109
558.0000      	17921.1    	37.33271
560.0000      	17857.1    	36.49184
562.0000      	17793.6    	35.63571
564.0000      	17730.5    	35.14687
566.0000      	17667.8    	34.50681
568.0000      	17605.6    	34.10655
570.0000      	17543.9    	33.86509
572.0000      	17482.5    	33.92920
574.0000      	17421.6    	34.28372
576.0000      	17361.1    	34.79858
578.0000      	17301    	35.60548
580.0000      	17241.4    	36.68665
582.0000      	17182.1    	37.59625
584.0000      	17123.3    	38.66036
586.0000      	17064.8    	39.88210
588.0000      	17006.8    	40.63140
590.0000      	16949.2    	41.63014
592.0000      	16891.9    	42.21033
594.0000      	16835    	42.58766
596.0000      	16778.5    	43.09610
598.0000      	16722.4    	43.43402
600.0000      	16666.7    	43.44273
602.0000      	16611.3    	43.58379
604.0000      	16556.3    	43.30229
606.0000      	16501.7    	43.27367
608.0000      	16447.4    	43.29709
610.0000      	16393.4    	43.34415
612.0000      	16339.9    	43.47009
614.0000      	16286.6    	43.29235
616.0000      	16233.8    	43.14073
618.0000      	16181.2    	43.23557
620.0000      	16129    	43.19582
622.0000      	16077.2    	43.08965
624.0000      	16025.6    	43.33147
626.0000      	15974.4    	43.41342
628.0000      	15923.6    	43.50397
630.0000      	15873    	43.39357
632.0000      	15822.8    	43.46085
634.0000      	15772.9    	43.52763
636.0000      	15723.3    	43.85788
638.0000      	15674    	43.98549
640.0000      	15625    	44.21211
642.0000      	15576.3    	44.47923
644.0000      	15528    	44.97862
646.0000      	15479.9    	45.38966
648.0000      	15432.1    	45.68750
650.0000      	15384.6    	46.13600
652.0000      	15337.4    	46.62956
654.0000      	15290.5    	46.99910
656.0000      	15243.9    	47.64553
658.0000      	15197.6    	47.91700
660.0000      	15151.5    	48.46525
662.0000      	15105.7    	48.70990
664.0000      	15060.2    	48.98297
666.0000      	15015    	49.38466
668.0000      	14970.1    	49.40388
670.0000      	14925.4    	49.42076
672.0000      	14881    	49.24675
674.0000      	14836.8    	49.15253
676.0000      	14792.9    	49.11971
678.0000      	14749.3    	49.24997
680.0000      	14705.9    	49.03855
682.0000      	14662.8    	48.94603
684.0000      	14619.9    	48.66262
686.0000      	14577.3    	48.30525
688.0000      	14534.9    	48.00299
690.0000      	14492.8    	47.79826
692.0000      	14450.9    	47.56874
694.0000      	14409.2    	47.45134
696.0000      	14367.8    	47.32967
698.0000      	14326.6    	47.11602
700.0000      	14285.7    	47.04601
702.0000      	14245    	46.75905
704.0000      	14204.5    	46.31976
706.0000      	14164.3    	46.00679
708.0000      	14124.3    	45.89494
710.0000      	14084.5    	45.86618
712.0000      	14044.9    	45.54875
714.0000      	14005.6    	45.32097
716.0000      	13966.5    	45.41918
718.0000      	13927.6    	45.82080
720.0000      	13888.9    	45.99571
722.0000      	13850.4    	46.46329
724.0000      	13812.2    	46.86614
726.0000      	13774.1    	47.64845
728.0000      	13736.3    	47.78001
730.0000      	13698.6    	48.31805
732.0000      	13661.2    	48.59231
734.0000      	13624    	49.08723
736.0000      	13587    	50.20065
738.0000      	13550.1    	50.90140
740.0000      	13513.5    	51.86495
742.0000      	13477.1    	52.65079
744.0000      	13440.9    	54.32912
746.0000      	13404.8    	55.25327
748.0000      	13369    	56.16656
750.0000      	13333.3    	57.86355
752.0000      	13297.9    	58.77047
754.0000      	13262.6    	60.28570
756.0000      	13227.5    	61.38528
758.0000      	13192.6    	62.43277
760.0000      	13157.9    	64.09850
762.0000      	13123.4    	64.97236
764.0000      	13089    	65.65691
766.0000      	13054.8    	66.04913
768.0000      	13020.8    	66.33217
770.0000      	12987    	66.78552
772.0000      	12953.4    	67.21330
774.0000      	12919.9    	67.61220
776.0000      	12886.6    	67.69468
778.0000      	12853.5    	67.54176
780.0000      	12820.5    	67.64988
782.0000      	12787.7    	67.88361
784.0000      	12755.1    	68.55447
786.0000      	12722.6    	68.40670
788.0000      	12690.4    	68.52427
790.0000      	12658.2    	68.46234
792.0000      	12626.3    	67.67193
794.0000      	12594.5    	67.64205
796.0000      	12562.8    	68.50369
798.0000      	12531.3    	68.23105
800.0000      	12500    	67.94231