Folder: Ophiomastix_wendtii_orientation/data/Reflectance_measurements/Reflectance_2019_material/25_white (part 2)

File: 25_white_3.txt
Unit Serial No : 240-IM0P2424-EU
Integration Time : 10 ms
Time Average: 10
Binning Average: 2
FFT Smoothing: 0%
Project Name : RPS900-R
Sample Name :  SM240-IMOP2424-EU
Measurement No : 1
Measurement Time : 06/03/2019   14:50:55

Wavelength(nm)	Wavenumber(1/cm)	Transmittance(%)
300.0000      	33333.3    	14.85246
302.0000      	33112.6    	16.78849
304.0000      	32894.7    	13.71406
306.0000      	32679.7    	13.52102
308.0000      	32467.5    	13.76214
310.0000      	32258.1    	10.82363
312.0000      	32051.3    	11.33233
314.0000      	31847.1    	10.98711
316.0000      	31645.6    	10.87683
318.0000      	31446.5    	10.64024
320.0000      	31250    	10.13208
322.0000      	31055.9    	9.37337
324.0000      	30864.2    	9.38797
326.0000      	30674.8    	8.67226
328.0000      	30487.8    	8.56028
330.0000      	30303    	8.61109
332.0000      	30120.5    	8.89433
334.0000      	29940.1    	9.25073
336.0000      	29761.9    	8.26271
338.0000      	29585.8    	8.87768
340.0000      	29411.8    	9.02958
342.0000      	29239.8    	8.98914
344.0000      	29069.8    	8.73575
346.0000      	28901.7    	9.30800
348.0000      	28735.6    	9.08270
350.0000      	28571.4    	9.70743
352.0000      	28409.1    	9.97028
354.0000      	28248.6    	9.92562
356.0000      	28089.9    	10.79932
358.0000      	27933    	11.09375
360.0000      	27777.8    	11.76138
362.0000      	27624.3    	12.11349
364.0000      	27472.5    	12.09815
366.0000      	27322.4    	12.61423
368.0000      	27173.9    	13.27724
370.0000      	27027    	13.56079
372.0000      	26881.7    	14.21975
374.0000      	26738    	14.85611
376.0000      	26595.7    	15.35086
378.0000      	26455    	16.25651
380.0000      	26315.8    	17.24715
382.0000      	26178    	17.73328
384.0000      	26041.7    	18.61638
386.0000      	25906.7    	19.55459
388.0000      	25773.2    	20.26249
390.0000      	25641    	21.55257
392.0000      	25510.2    	21.70780
394.0000      	25380.7    	22.98406
396.0000      	25252.5    	24.21805
398.0000      	25125.6    	25.31831
400.0000      	25000    	26.97081
402.0000      	24875.6    	28.25066
404.0000      	24752.5    	29.78531
406.0000      	24630.5    	31.93949
408.0000      	24509.8    	33.85017
410.0000      	24390.2    	36.08722
412.0000      	24271.8    	37.82775
414.0000      	24154.6    	39.74638
416.0000      	24038.5    	41.13754
418.0000      	23923.4    	42.26324
420.0000      	23809.5    	42.81386
422.0000      	23696.7    	43.53009
424.0000      	23584.9    	44.47805
426.0000      	23474.2    	44.91370
428.0000      	23364.5    	45.76702
430.0000      	23255.8    	46.31899
432.0000      	23148.1    	46.94862
434.0000      	23041.5    	47.93243
436.0000      	22935.8    	48.52042
438.0000      	22831.1    	48.80027
440.0000      	22727.3    	49.28564
442.0000      	22624.4    	49.21973
444.0000      	22522.5    	49.32241
446.0000      	22421.5    	49.04105
448.0000      	22321.4    	48.58116
450.0000      	22222.2    	48.28840
452.0000      	22123.9    	48.38559
454.0000      	22026.4    	48.80297
456.0000      	21929.8    	49.00800
458.0000      	21834.1    	48.83952
460.0000      	21739.1    	48.87243
462.0000      	21645    	49.15274
464.0000      	21551.7    	49.40834
466.0000      	21459.2    	49.76840
468.0000      	21367.5    	49.87799
470.0000      	21276.6    	50.19993
472.0000      	21186.4    	50.75515
474.0000      	21097    	51.29764
476.0000      	21008.4    	51.63453
478.0000      	20920.5    	51.94736
480.0000      	20833.3    	52.39006
482.0000      	20746.9    	52.89329
484.0000      	20661.2    	53.34629
486.0000      	20576.1    	53.57329
488.0000      	20491.8    	54.02353
490.0000      	20408.2    	54.59024
492.0000      	20325.2    	55.02123
494.0000      	20242.9    	55.26237
496.0000      	20161.3    	55.61899
498.0000      	20080.3    	55.97579
500.0000      	20000    	56.12748
502.0000      	19920.3    	56.32468
504.0000      	19841.3    	56.44270
506.0000      	19762.8    	56.26130
508.0000      	19685    	55.86304
510.0000      	19607.8    	55.32909
512.0000      	19531.2    	54.64193
514.0000      	19455.3    	53.89979
516.0000      	19379.8    	52.91143
518.0000      	19305    	51.72447
520.0000      	19230.8    	50.82173
522.0000      	19157.1    	49.53325
524.0000      	19084    	48.37668
526.0000      	19011.4    	47.52546
528.0000      	18939.4    	46.48447
530.0000      	18867.9    	45.78854
532.0000      	18797    	45.11703
534.0000      	18726.6    	44.64680
536.0000      	18656.7    	44.20699
538.0000      	18587.4    	43.96505
540.0000      	18518.5    	43.79504
542.0000      	18450.2    	43.72485
544.0000      	18382.4    	43.68461
546.0000      	18315    	43.43360
548.0000      	18248.2    	43.37038
550.0000      	18181.8    	42.93009
552.0000      	18115.9    	42.43894
554.0000      	18050.5    	41.76444
556.0000      	17985.6    	40.95142
558.0000      	17921.1    	40.35434
560.0000      	17857.1    	39.42332
562.0000      	17793.6    	38.51131
564.0000      	17730.5    	37.74390
566.0000      	17667.8    	37.00303
568.0000      	17605.6    	36.55406
570.0000      	17543.9    	36.38419
572.0000      	17482.5    	36.34387
574.0000      	17421.6    	36.80482
576.0000      	17361.1    	37.29177
578.0000      	17301    	38.30929
580.0000      	17241.4    	39.55763
582.0000      	17182.1    	40.74849
584.0000      	17123.3    	42.14998
586.0000      	17064.8    	43.41519
588.0000      	17006.8    	44.38126
590.0000      	16949.2    	45.56079
592.0000      	16891.9    	46.47429
594.0000      	16835    	46.92013
596.0000      	16778.5    	47.31077
598.0000      	16722.4    	47.66204
600.0000      	16666.7    	47.76109
602.0000      	16611.3    	47.89460
604.0000      	16556.3    	47.81824
606.0000      	16501.7    	47.85779
608.0000      	16447.4    	47.69327
610.0000      	16393.4    	47.76325
612.0000      	16339.9    	47.91171
614.0000      	16286.6    	47.84140
616.0000      	16233.8    	47.70496
618.0000      	16181.2    	47.77670
620.0000      	16129    	47.95621
622.0000      	16077.2    	47.81657
624.0000      	16025.6    	47.75537
626.0000      	15974.4    	47.86798
628.0000      	15923.6    	48.03482
630.0000      	15873    	48.21357
632.0000      	15822.8    	48.22060
634.0000      	15772.9    	48.62696
636.0000      	15723.3    	48.90595
638.0000      	15674    	49.16108
640.0000      	15625    	49.65221
642.0000      	15576.3    	49.99327
644.0000      	15528    	50.52016
646.0000      	15479.9    	51.39116
648.0000      	15432.1    	51.78817
650.0000      	15384.6    	52.40795
652.0000      	15337.4    	53.17396
654.0000      	15290.5    	53.66388
656.0000      	15243.9    	54.44476
658.0000      	15197.6    	55.05262
660.0000      	15151.5    	55.60218
662.0000      	15105.7    	56.28786
664.0000      	15060.2    	56.74816
666.0000      	15015    	57.01399
668.0000      	14970.1    	57.17929
670.0000      	14925.4    	57.58655
672.0000      	14881    	57.61418
674.0000      	14836.8    	57.54061
676.0000      	14792.9    	57.23595
678.0000      	14749.3    	57.10412
680.0000      	14705.9    	56.96394
682.0000      	14662.8    	56.67289
684.0000      	14619.9    	56.46545
686.0000      	14577.3    	55.99162
688.0000      	14534.9    	55.78898
690.0000      	14492.8    	55.35330
692.0000      	14450.9    	55.23440
694.0000      	14409.2    	55.25430
696.0000      	14367.8    	54.99538
698.0000      	14326.6    	54.95398
700.0000      	14285.7    	55.01266
702.0000      	14245    	54.48210
704.0000      	14204.5    	54.15331
706.0000      	14164.3    	53.89338
708.0000      	14124.3    	53.73519
710.0000      	14084.5    	53.60958
712.0000      	14044.9    	53.53030
714.0000      	14005.6    	53.19099
716.0000      	13966.5    	53.46954
718.0000      	13927.6    	53.76360
720.0000      	13888.9    	54.05814
722.0000      	13850.4    	54.39100
724.0000      	13812.2    	55.11584
726.0000      	13774.1    	55.76813
728.0000      	13736.3    	56.20244
730.0000      	13698.6    	56.84669
732.0000      	13661.2    	57.33564
734.0000      	13624    	58.54691
736.0000      	13587    	59.54598
738.0000      	13550.1    	60.73369
740.0000      	13513.5    	61.82774
742.0000      	13477.1    	62.89020
744.0000      	13440.9    	64.86982
746.0000      	13404.8    	66.60491
748.0000      	13369    	67.93825
750.0000      	13333.3    	69.80834
752.0000      	13297.9    	71.47457
754.0000      	13262.6    	73.72082
756.0000      	13227.5    	75.03231
758.0000      	13192.6    	76.56197
760.0000      	13157.9    	78.62920
762.0000      	13123.4    	79.98666
764.0000      	13089    	80.95464
766.0000      	13054.8    	81.72611
768.0000      	13020.8    	82.13201
770.0000      	12987    	82.75762
772.0000      	12953.4    	83.44833
774.0000      	12919.9    	83.97356
776.0000      	12886.6    	84.39674
778.0000      	12853.5    	84.34409
780.0000      	12820.5    	84.56007
782.0000      	12787.7    	84.28481
784.0000      	12755.1    	84.61885
786.0000      	12722.6    	85.06359
788.0000      	12690.4    	85.28195
790.0000      	12658.2    	85.38653
792.0000      	12626.3    	85.01172
794.0000      	12594.5    	85.03480
796.0000      	12562.8    	85.01641
798.0000      	12531.3    	85.08590
800.0000      	12500    	85.32114