Folder: Ophiomastix_wendtii_orientation/data/Reflectance_measurements/Reflectance_2019_material/38 (part 2)

File: 38_3.txt
Unit Serial No : 240-IM0P2424-EU
Integration Time : 10 ms
Time Average: 10
Binning Average: 2
FFT Smoothing: 0%
Project Name : RPS900-R
Sample Name :  SM240-IMOP2424-EU
Measurement No : 1
Measurement Time : 06/03/2019   15:02:57

Wavelength(nm)	Wavenumber(1/cm)	Transmittance(%)
300.0000      	33333.3    	14.84817
302.0000      	33112.6    	10.76200
304.0000      	32894.7    	11.77885
306.0000      	32679.7    	12.42949
308.0000      	32467.5    	10.67882
310.0000      	32258.1    	11.31205
312.0000      	32051.3    	10.56043
314.0000      	31847.1    	9.23561
316.0000      	31645.6    	10.31960
318.0000      	31446.5    	9.62519
320.0000      	31250    	9.13828
322.0000      	31055.9    	9.10577
324.0000      	30864.2    	7.38175
326.0000      	30674.8    	7.68794
328.0000      	30487.8    	7.44560
330.0000      	30303    	7.25933
332.0000      	30120.5    	8.12398
334.0000      	29940.1    	7.65189
336.0000      	29761.9    	7.63167
338.0000      	29585.8    	7.98530
340.0000      	29411.8    	7.47942
342.0000      	29239.8    	7.68493
344.0000      	29069.8    	7.60049
346.0000      	28901.7    	7.37941
348.0000      	28735.6    	7.74890
350.0000      	28571.4    	8.11053
352.0000      	28409.1    	7.56915
354.0000      	28248.6    	8.41190
356.0000      	28089.9    	8.43276
358.0000      	27933    	8.58318
360.0000      	27777.8    	9.11318
362.0000      	27624.3    	9.13948
364.0000      	27472.5    	9.56094
366.0000      	27322.4    	9.82469
368.0000      	27173.9    	9.82760
370.0000      	27027    	10.26663
372.0000      	26881.7    	10.43415
374.0000      	26738    	10.60921
376.0000      	26595.7    	11.30612
378.0000      	26455    	11.56911
380.0000      	26315.8    	12.34926
382.0000      	26178    	13.04875
384.0000      	26041.7    	13.26313
386.0000      	25906.7    	13.88566
388.0000      	25773.2    	14.57746
390.0000      	25641    	15.09859
392.0000      	25510.2    	15.49469
394.0000      	25380.7    	16.38746
396.0000      	25252.5    	16.99557
398.0000      	25125.6    	17.80194
400.0000      	25000    	18.86427
402.0000      	24875.6    	19.60505
404.0000      	24752.5    	20.46446
406.0000      	24630.5    	21.77556
408.0000      	24509.8    	22.86991
410.0000      	24390.2    	23.94454
412.0000      	24271.8    	24.74632
414.0000      	24154.6    	25.71357
416.0000      	24038.5    	26.52230
418.0000      	23923.4    	26.77369
420.0000      	23809.5    	27.24629
422.0000      	23696.7    	27.51668
424.0000      	23584.9    	28.13904
426.0000      	23474.2    	28.72664
428.0000      	23364.5    	29.01437
430.0000      	23255.8    	29.34913
432.0000      	23148.1    	29.87592
434.0000      	23041.5    	30.14266
436.0000      	22935.8    	30.63481
438.0000      	22831.1    	31.00769
440.0000      	22727.3    	31.07137
442.0000      	22624.4    	31.59674
444.0000      	22522.5    	31.65639
446.0000      	22421.5    	31.61257
448.0000      	22321.4    	31.43872
450.0000      	22222.2    	31.34820
452.0000      	22123.9    	31.55558
454.0000      	22026.4    	31.97846
456.0000      	21929.8    	32.18419
458.0000      	21834.1    	32.43433
460.0000      	21739.1    	32.79243
462.0000      	21645    	33.15614
464.0000      	21551.7    	33.53399
466.0000      	21459.2    	33.79897
468.0000      	21367.5    	34.03298
470.0000      	21276.6    	34.49912
472.0000      	21186.4    	35.14192
474.0000      	21097    	35.61632
476.0000      	21008.4    	36.19200
478.0000      	20920.5    	36.62593
480.0000      	20833.3    	37.06786
482.0000      	20746.9    	37.77193
484.0000      	20661.2    	38.27237
486.0000      	20576.1    	38.69837
488.0000      	20491.8    	39.29079
490.0000      	20408.2    	39.86356
492.0000      	20325.2    	40.38074
494.0000      	20242.9    	40.92111
496.0000      	20161.3    	41.21496
498.0000      	20080.3    	41.64779
500.0000      	20000    	41.80431
502.0000      	19920.3    	41.89547
504.0000      	19841.3    	42.01404
506.0000      	19762.8    	41.91804
508.0000      	19685    	41.46905
510.0000      	19607.8    	40.96959
512.0000      	19531.2    	40.23483
514.0000      	19455.3    	39.55067
516.0000      	19379.8    	38.60440
518.0000      	19305    	37.42788
520.0000      	19230.8    	36.60925
522.0000      	19157.1    	35.34492
524.0000      	19084    	34.08072
526.0000      	19011.4    	33.09765
528.0000      	18939.4    	32.13585
530.0000      	18867.9    	31.48194
532.0000      	18797    	30.78310
534.0000      	18726.6    	30.44810
536.0000      	18656.7    	29.94476
538.0000      	18587.4    	29.72268
540.0000      	18518.5    	29.67847
542.0000      	18450.2    	29.57431
544.0000      	18382.4    	29.50458
546.0000      	18315    	29.50377
548.0000      	18248.2    	29.29820
550.0000      	18181.8    	29.12410
552.0000      	18115.9    	28.82641
554.0000      	18050.5    	28.14819
556.0000      	17985.6    	27.41915
558.0000      	17921.1    	26.89309
560.0000      	17857.1    	26.19068
562.0000      	17793.6    	25.49335
564.0000      	17730.5    	25.00833
566.0000      	17667.8    	24.40584
568.0000      	17605.6    	24.07802
570.0000      	17543.9    	23.98689
572.0000      	17482.5    	23.99444
574.0000      	17421.6    	24.41433
576.0000      	17361.1    	24.91455
578.0000      	17301    	25.62238
580.0000      	17241.4    	26.79631
582.0000      	17182.1    	27.70739
584.0000      	17123.3    	28.81164
586.0000      	17064.8    	29.98982
588.0000      	17006.8    	30.78855
590.0000      	16949.2    	31.74071
592.0000      	16891.9    	32.57126
594.0000      	16835    	32.93193
596.0000      	16778.5    	33.40990
598.0000      	16722.4    	33.71255
600.0000      	16666.7    	33.76057
602.0000      	16611.3    	33.92474
604.0000      	16556.3    	33.91021
606.0000      	16501.7    	33.85204
608.0000      	16447.4    	33.56481
610.0000      	16393.4    	33.54638
612.0000      	16339.9    	33.70744
614.0000      	16286.6    	33.72905
616.0000      	16233.8    	33.55352
618.0000      	16181.2    	33.51519
620.0000      	16129    	33.68871
622.0000      	16077.2    	33.55124
624.0000      	16025.6    	33.58678
626.0000      	15974.4    	33.75603
628.0000      	15923.6    	33.86513
630.0000      	15873    	33.89440
632.0000      	15822.8    	34.00182
634.0000      	15772.9    	34.00760
636.0000      	15723.3    	34.16966
638.0000      	15674    	34.35384
640.0000      	15625    	34.54793
642.0000      	15576.3    	34.74730
644.0000      	15528    	35.14625
646.0000      	15479.9    	35.64745
648.0000      	15432.1    	35.95337
650.0000      	15384.6    	36.37764
652.0000      	15337.4    	36.76671
654.0000      	15290.5    	37.13908
656.0000      	15243.9    	37.64270
658.0000      	15197.6    	37.96299
660.0000      	15151.5    	38.46333
662.0000      	15105.7    	38.88315
664.0000      	15060.2    	39.17901
666.0000      	15015    	39.54508
668.0000      	14970.1    	39.68339
670.0000      	14925.4    	39.67740
672.0000      	14881    	39.73846
674.0000      	14836.8    	39.64199
676.0000      	14792.9    	39.49708
678.0000      	14749.3    	39.42207
680.0000      	14705.9    	39.33655
682.0000      	14662.8    	39.08778
684.0000      	14619.9    	38.82457
686.0000      	14577.3    	38.56273
688.0000      	14534.9    	38.22942
690.0000      	14492.8    	38.22313
692.0000      	14450.9    	37.86717
694.0000      	14409.2    	37.66128
696.0000      	14367.8    	37.53065
698.0000      	14326.6    	37.26228
700.0000      	14285.7    	36.94804
702.0000      	14245    	36.68932
704.0000      	14204.5    	36.31330
706.0000      	14164.3    	35.75251
708.0000      	14124.3    	35.73861
710.0000      	14084.5    	35.52315
712.0000      	14044.9    	35.19196
714.0000      	14005.6    	35.33465
716.0000      	13966.5    	35.56085
718.0000      	13927.6    	35.62061
720.0000      	13888.9    	35.96098
722.0000      	13850.4    	36.30467
724.0000      	13812.2    	36.73014
726.0000      	13774.1    	37.63409
728.0000      	13736.3    	37.94840
730.0000      	13698.6    	38.59786
732.0000      	13661.2    	39.19963
734.0000      	13624    	40.08434
736.0000      	13587    	40.94335
738.0000      	13550.1    	42.12431
740.0000      	13513.5    	43.33095
742.0000      	13477.1    	44.33685
744.0000      	13440.9    	46.24685
746.0000      	13404.8    	47.54473
748.0000      	13369    	49.13231
750.0000      	13333.3    	51.50102
752.0000      	13297.9    	52.76369
754.0000      	13262.6    	55.23550
756.0000      	13227.5    	56.89262
758.0000      	13192.6    	58.62971
760.0000      	13157.9    	60.83540
762.0000      	13123.4    	62.25652
764.0000      	13089    	63.23030
766.0000      	13054.8    	63.96167
768.0000      	13020.8    	64.78047
770.0000      	12987    	65.24916
772.0000      	12953.4    	65.94024
774.0000      	12919.9    	66.85194
776.0000      	12886.6    	66.84229
778.0000      	12853.5    	66.94485
780.0000      	12820.5    	67.04118
782.0000      	12787.7    	66.87897
784.0000      	12755.1    	67.56361
786.0000      	12722.6    	67.88243
788.0000      	12690.4    	67.46558
790.0000      	12658.2    	67.83086
792.0000      	12626.3    	67.63243
794.0000      	12594.5    	67.11641
796.0000      	12562.8    	67.58075
798.0000      	12531.3    	67.95002
800.0000      	12500    	67.83089