Folder: Ophiomastix_wendtii_orientation/data/Reflectance_measurements/Reflectance_2019_material/38_white (part 2)

File: 38_w_3 .txt
Unit Serial No : 240-IM0P2424-EU
Integration Time : 10 ms
Time Average: 10
Binning Average: 2
FFT Smoothing: 0%
Project Name : RPS900-R
Sample Name :  SM240-IMOP2424-EU
Measurement No : 1
Measurement Time : 06/03/2019   15:03:55

Wavelength(nm)	Wavenumber(1/cm)	Transmittance(%)
300.0000      	33333.3    	14.37854
302.0000      	33112.6    	12.95292
304.0000      	32894.7    	12.18885
306.0000      	32679.7    	12.02516
308.0000      	32467.5    	11.19450
310.0000      	32258.1    	11.77769
312.0000      	32051.3    	10.38904
314.0000      	31847.1    	9.66168
316.0000      	31645.6    	9.87831
318.0000      	31446.5    	9.56004
320.0000      	31250    	9.56968
322.0000      	31055.9    	8.58975
324.0000      	30864.2    	8.40493
326.0000      	30674.8    	8.27220
328.0000      	30487.8    	7.81819
330.0000      	30303    	7.57155
332.0000      	30120.5    	8.30792
334.0000      	29940.1    	7.98493
336.0000      	29761.9    	7.46180
338.0000      	29585.8    	7.56969
340.0000      	29411.8    	7.48907
342.0000      	29239.8    	7.75751
344.0000      	29069.8    	7.55241
346.0000      	28901.7    	7.67649
348.0000      	28735.6    	7.98029
350.0000      	28571.4    	8.12423
352.0000      	28409.1    	8.14015
354.0000      	28248.6    	8.32548
356.0000      	28089.9    	8.48679
358.0000      	27933    	8.50325
360.0000      	27777.8    	9.02028
362.0000      	27624.3    	9.04877
364.0000      	27472.5    	9.57777
366.0000      	27322.4    	9.65035
368.0000      	27173.9    	9.86331
370.0000      	27027    	10.31110
372.0000      	26881.7    	10.62580
374.0000      	26738    	10.81171
376.0000      	26595.7    	11.43863
378.0000      	26455    	11.97353
380.0000      	26315.8    	12.62627
382.0000      	26178    	12.95366
384.0000      	26041.7    	13.27589
386.0000      	25906.7    	13.87784
388.0000      	25773.2    	14.69932
390.0000      	25641    	15.32179
392.0000      	25510.2    	15.86383
394.0000      	25380.7    	16.60912
396.0000      	25252.5    	17.27635
398.0000      	25125.6    	18.24033
400.0000      	25000    	19.03158
402.0000      	24875.6    	19.59742
404.0000      	24752.5    	20.83938
406.0000      	24630.5    	21.93613
408.0000      	24509.8    	23.18344
410.0000      	24390.2    	24.43157
412.0000      	24271.8    	25.30191
414.0000      	24154.6    	26.33398
416.0000      	24038.5    	27.27546
418.0000      	23923.4    	27.93607
420.0000      	23809.5    	28.42181
422.0000      	23696.7    	28.81364
424.0000      	23584.9    	29.06757
426.0000      	23474.2    	29.54935
428.0000      	23364.5    	30.14844
430.0000      	23255.8    	30.54211
432.0000      	23148.1    	30.85073
434.0000      	23041.5    	31.30231
436.0000      	22935.8    	31.91068
438.0000      	22831.1    	32.24478
440.0000      	22727.3    	32.48156
442.0000      	22624.4    	32.62420
444.0000      	22522.5    	32.84534
446.0000      	22421.5    	32.75331
448.0000      	22321.4    	32.96640
450.0000      	22222.2    	32.82122
452.0000      	22123.9    	33.02438
454.0000      	22026.4    	33.56832
456.0000      	21929.8    	33.65472
458.0000      	21834.1    	33.72938
460.0000      	21739.1    	34.13543
462.0000      	21645    	34.27883
464.0000      	21551.7    	34.57095
466.0000      	21459.2    	34.97404
468.0000      	21367.5    	35.31568
470.0000      	21276.6    	35.74198
472.0000      	21186.4    	36.36208
474.0000      	21097    	36.92872
476.0000      	21008.4    	37.52188
478.0000      	20920.5    	37.89251
480.0000      	20833.3    	38.64947
482.0000      	20746.9    	39.23209
484.0000      	20661.2    	39.75315
486.0000      	20576.1    	40.13247
488.0000      	20491.8    	40.76931
490.0000      	20408.2    	41.41618
492.0000      	20325.2    	41.92013
494.0000      	20242.9    	42.43105
496.0000      	20161.3    	42.86532
498.0000      	20080.3    	43.33551
500.0000      	20000    	43.57319
502.0000      	19920.3    	43.68174
504.0000      	19841.3    	43.85964
506.0000      	19762.8    	43.75801
508.0000      	19685    	43.37539
510.0000      	19607.8    	42.87051
512.0000      	19531.2    	42.06860
514.0000      	19455.3    	41.27430
516.0000      	19379.8    	40.25512
518.0000      	19305    	38.88559
520.0000      	19230.8    	37.94757
522.0000      	19157.1    	36.63088
524.0000      	19084    	35.37038
526.0000      	19011.4    	34.40944
528.0000      	18939.4    	33.45271
530.0000      	18867.9    	32.56047
532.0000      	18797    	31.83613
534.0000      	18726.6    	31.50650
536.0000      	18656.7    	31.02484
538.0000      	18587.4    	30.81257
540.0000      	18518.5    	30.70191
542.0000      	18450.2    	30.59599
544.0000      	18382.4    	30.64952
546.0000      	18315    	30.51158
548.0000      	18248.2    	30.51466
550.0000      	18181.8    	30.22213
552.0000      	18115.9    	29.84456
554.0000      	18050.5    	29.34369
556.0000      	17985.6    	28.53491
558.0000      	17921.1    	27.83206
560.0000      	17857.1    	26.96435
562.0000      	17793.6    	26.23610
564.0000      	17730.5    	25.66556
566.0000      	17667.8    	25.08284
568.0000      	17605.6    	24.73887
570.0000      	17543.9    	24.63704
572.0000      	17482.5    	24.67711
574.0000      	17421.6    	25.18562
576.0000      	17361.1    	25.63021
578.0000      	17301    	26.52201
580.0000      	17241.4    	27.71578
582.0000      	17182.1    	28.74695
584.0000      	17123.3    	30.07621
586.0000      	17064.8    	31.44167
588.0000      	17006.8    	32.24297
590.0000      	16949.2    	33.33558
592.0000      	16891.9    	34.18638
594.0000      	16835    	34.62000
596.0000      	16778.5    	35.16397
598.0000      	16722.4    	35.58364
600.0000      	16666.7    	35.65682
602.0000      	16611.3    	35.73095
604.0000      	16556.3    	35.62064
606.0000      	16501.7    	35.62801
608.0000      	16447.4    	35.58156
610.0000      	16393.4    	35.66989
612.0000      	16339.9    	35.60301
614.0000      	16286.6    	35.54991
616.0000      	16233.8    	35.52343
618.0000      	16181.2    	35.43416
620.0000      	16129    	35.65149
622.0000      	16077.2    	35.62445
624.0000      	16025.6    	35.63775
626.0000      	15974.4    	35.74197
628.0000      	15923.6    	35.84819
630.0000      	15873    	35.86229
632.0000      	15822.8    	36.11901
634.0000      	15772.9    	36.19154
636.0000      	15723.3    	36.42828
638.0000      	15674    	36.70933
640.0000      	15625    	36.86991
642.0000      	15576.3    	37.25530
644.0000      	15528    	37.71292
646.0000      	15479.9    	38.38322
648.0000      	15432.1    	38.71564
650.0000      	15384.6    	39.36869
652.0000      	15337.4    	39.84954
654.0000      	15290.5    	40.30353
656.0000      	15243.9    	41.08844
658.0000      	15197.6    	41.52966
660.0000      	15151.5    	42.23401
662.0000      	15105.7    	42.81379
664.0000      	15060.2    	43.07291
666.0000      	15015    	43.70086
668.0000      	14970.1    	43.82491
670.0000      	14925.4    	43.85217
672.0000      	14881    	43.95090
674.0000      	14836.8    	43.88649
676.0000      	14792.9    	43.65834
678.0000      	14749.3    	43.69708
680.0000      	14705.9    	43.37803
682.0000      	14662.8    	43.08339
684.0000      	14619.9    	43.02618
686.0000      	14577.3    	42.70425
688.0000      	14534.9    	42.41261
690.0000      	14492.8    	42.19862
692.0000      	14450.9    	41.95390
694.0000      	14409.2    	41.65203
696.0000      	14367.8    	41.56844
698.0000      	14326.6    	41.14497
700.0000      	14285.7    	40.80268
702.0000      	14245    	40.69375
704.0000      	14204.5    	40.14135
706.0000      	14164.3    	39.76870
708.0000      	14124.3    	39.56627
710.0000      	14084.5    	39.37729
712.0000      	14044.9    	39.16637
714.0000      	14005.6    	39.18856
716.0000      	13966.5    	39.35182
718.0000      	13927.6    	39.45940
720.0000      	13888.9    	40.01045
722.0000      	13850.4    	40.62703
724.0000      	13812.2    	41.31159
726.0000      	13774.1    	41.98515
728.0000      	13736.3    	42.40649
730.0000      	13698.6    	43.28500
732.0000      	13661.2    	43.88364
734.0000      	13624    	44.96065
736.0000      	13587    	46.09010
738.0000      	13550.1    	47.39560
740.0000      	13513.5    	48.86707
742.0000      	13477.1    	50.21892
744.0000      	13440.9    	52.41110
746.0000      	13404.8    	54.25167
748.0000      	13369    	56.16153
750.0000      	13333.3    	58.78080
752.0000      	13297.9    	60.73640
754.0000      	13262.6    	63.70438
756.0000      	13227.5    	65.64788
758.0000      	13192.6    	67.88905
760.0000      	13157.9    	70.54854
762.0000      	13123.4    	72.40591
764.0000      	13089    	74.19570
766.0000      	13054.8    	75.52834
768.0000      	13020.8    	76.66129
770.0000      	12987    	77.18346
772.0000      	12953.4    	78.35178
774.0000      	12919.9    	78.76637
776.0000      	12886.6    	79.27644
778.0000      	12853.5    	79.47846
780.0000      	12820.5    	79.87397
782.0000      	12787.7    	80.02391
784.0000      	12755.1    	80.51246
786.0000      	12722.6    	80.86197
788.0000      	12690.4    	80.70038
790.0000      	12658.2    	81.23082
792.0000      	12626.3    	80.69717
794.0000      	12594.5    	80.56821
796.0000      	12562.8    	81.10093
798.0000      	12531.3    	81.20670
800.0000      	12500    	81.13628