Folder: Ophiomastix_wendtii_orientation/data/Reflectance_measurements/Reflectance_2019_material/50 (part 2)

File: 50_3.txt
Unit Serial No : 240-IM0P2424-EU
Integration Time : 10 ms
Time Average: 10
Binning Average: 2
FFT Smoothing: 0%
Project Name : RPS900-R
Sample Name :  SM240-IMOP2424-EU
Measurement No : 1
Measurement Time : 06/03/2019   14:43:50

Wavelength(nm)	Wavenumber(1/cm)	Transmittance(%)
300.0000      	33333.3    	13.25485
302.0000      	33112.6    	12.68569
304.0000      	32894.7    	12.64441
306.0000      	32679.7    	11.50435
308.0000      	32467.5    	12.83669
310.0000      	32258.1    	11.07709
312.0000      	32051.3    	9.66482
314.0000      	31847.1    	9.73552
316.0000      	31645.6    	8.77509
318.0000      	31446.5    	9.35093
320.0000      	31250    	8.87234
322.0000      	31055.9    	7.61067
324.0000      	30864.2    	8.13761
326.0000      	30674.8    	7.89405
328.0000      	30487.8    	7.82901
330.0000      	30303    	7.26585
332.0000      	30120.5    	7.63576
334.0000      	29940.1    	7.90465
336.0000      	29761.9    	7.20950
338.0000      	29585.8    	7.32140
340.0000      	29411.8    	7.39992
342.0000      	29239.8    	7.24677
344.0000      	29069.8    	7.21017
346.0000      	28901.7    	7.29677
348.0000      	28735.6    	7.04424
350.0000      	28571.4    	7.54383
352.0000      	28409.1    	7.45547
354.0000      	28248.6    	7.44166
356.0000      	28089.9    	7.88880
358.0000      	27933    	7.91979
360.0000      	27777.8    	7.91318
362.0000      	27624.3    	8.02444
364.0000      	27472.5    	7.90834
366.0000      	27322.4    	8.22749
368.0000      	27173.9    	8.46961
370.0000      	27027    	8.57370
372.0000      	26881.7    	8.77601
374.0000      	26738    	8.99099
376.0000      	26595.7    	9.40015
378.0000      	26455    	9.93423
380.0000      	26315.8    	10.23474
382.0000      	26178    	10.44913
384.0000      	26041.7    	11.03008
386.0000      	25906.7    	11.26482
388.0000      	25773.2    	11.89600
390.0000      	25641    	12.57120
392.0000      	25510.2    	12.90418
394.0000      	25380.7    	13.46103
396.0000      	25252.5    	14.06031
398.0000      	25125.6    	14.67381
400.0000      	25000    	15.49700
402.0000      	24875.6    	15.96262
404.0000      	24752.5    	16.52312
406.0000      	24630.5    	17.60942
408.0000      	24509.8    	18.25438
410.0000      	24390.2    	19.08533
412.0000      	24271.8    	19.75988
414.0000      	24154.6    	20.35351
416.0000      	24038.5    	20.91133
418.0000      	23923.4    	21.18493
420.0000      	23809.5    	21.30955
422.0000      	23696.7    	21.64831
424.0000      	23584.9    	22.05412
426.0000      	23474.2    	22.57057
428.0000      	23364.5    	22.79657
430.0000      	23255.8    	22.83908
432.0000      	23148.1    	23.14809
434.0000      	23041.5    	23.60140
436.0000      	22935.8    	24.09854
438.0000      	22831.1    	24.31349
440.0000      	22727.3    	24.37221
442.0000      	22624.4    	24.43563
444.0000      	22522.5    	24.80962
446.0000      	22421.5    	24.83232
448.0000      	22321.4    	24.83043
450.0000      	22222.2    	24.94023
452.0000      	22123.9    	25.20105
454.0000      	22026.4    	25.38460
456.0000      	21929.8    	25.53701
458.0000      	21834.1    	25.74302
460.0000      	21739.1    	25.97435
462.0000      	21645    	26.27720
464.0000      	21551.7    	26.57905
466.0000      	21459.2    	27.05687
468.0000      	21367.5    	27.36467
470.0000      	21276.6    	27.68484
472.0000      	21186.4    	28.09680
474.0000      	21097    	28.63914
476.0000      	21008.4    	29.00892
478.0000      	20920.5    	29.40540
480.0000      	20833.3    	30.01492
482.0000      	20746.9    	30.53192
484.0000      	20661.2    	31.18128
486.0000      	20576.1    	31.55325
488.0000      	20491.8    	32.02446
490.0000      	20408.2    	32.62957
492.0000      	20325.2    	33.12099
494.0000      	20242.9    	33.66436
496.0000      	20161.3    	34.02600
498.0000      	20080.3    	34.29307
500.0000      	20000    	34.57920
502.0000      	19920.3    	34.73971
504.0000      	19841.3    	34.84836
506.0000      	19762.8    	34.75567
508.0000      	19685    	34.40210
510.0000      	19607.8    	33.83751
512.0000      	19531.2    	33.13029
514.0000      	19455.3    	32.35390
516.0000      	19379.8    	31.30279
518.0000      	19305    	30.07298
520.0000      	19230.8    	29.12048
522.0000      	19157.1    	27.86937
524.0000      	19084    	26.67305
526.0000      	19011.4    	25.77611
528.0000      	18939.4    	24.77839
530.0000      	18867.9    	24.02931
532.0000      	18797    	23.39448
534.0000      	18726.6    	23.01231
536.0000      	18656.7    	22.58937
538.0000      	18587.4    	22.34954
540.0000      	18518.5    	22.31563
542.0000      	18450.2    	22.19514
544.0000      	18382.4    	22.19627
546.0000      	18315    	22.22010
548.0000      	18248.2    	22.19357
550.0000      	18181.8    	21.87588
552.0000      	18115.9    	21.55905
554.0000      	18050.5    	21.06537
556.0000      	17985.6    	20.40525
558.0000      	17921.1    	19.92285
560.0000      	17857.1    	19.23044
562.0000      	17793.6    	18.47176
564.0000      	17730.5    	18.06140
566.0000      	17667.8    	17.59476
568.0000      	17605.6    	17.24653
570.0000      	17543.9    	17.23862
572.0000      	17482.5    	17.39214
574.0000      	17421.6    	17.79172
576.0000      	17361.1    	18.19572
578.0000      	17301    	18.86078
580.0000      	17241.4    	19.85233
582.0000      	17182.1    	20.67104
584.0000      	17123.3    	21.68084
586.0000      	17064.8    	22.83358
588.0000      	17006.8    	23.66139
590.0000      	16949.2    	24.61866
592.0000      	16891.9    	25.28983
594.0000      	16835    	25.79312
596.0000      	16778.5    	26.24212
598.0000      	16722.4    	26.46765
600.0000      	16666.7    	26.57132
602.0000      	16611.3    	26.58843
604.0000      	16556.3    	26.55192
606.0000      	16501.7    	26.62511
608.0000      	16447.4    	26.44266
610.0000      	16393.4    	26.45106
612.0000      	16339.9    	26.56341
614.0000      	16286.6    	26.44742
616.0000      	16233.8    	26.38470
618.0000      	16181.2    	26.42881
620.0000      	16129    	26.49161
622.0000      	16077.2    	26.43901
624.0000      	16025.6    	26.55585
626.0000      	15974.4    	26.63234
628.0000      	15923.6    	26.72468
630.0000      	15873    	26.65859
632.0000      	15822.8    	26.67914
634.0000      	15772.9    	26.99283
636.0000      	15723.3    	27.10097
638.0000      	15674    	27.20261
640.0000      	15625    	27.51648
642.0000      	15576.3    	27.57393
644.0000      	15528    	27.95721
646.0000      	15479.9    	28.49929
648.0000      	15432.1    	28.71949
650.0000      	15384.6    	29.09589
652.0000      	15337.4    	29.55736
654.0000      	15290.5    	29.90162
656.0000      	15243.9    	30.44627
658.0000      	15197.6    	30.86969
660.0000      	15151.5    	31.29021
662.0000      	15105.7    	31.57251
664.0000      	15060.2    	31.95100
666.0000      	15015    	32.40937
668.0000      	14970.1    	32.47678
670.0000      	14925.4    	32.58714
672.0000      	14881    	32.70041
674.0000      	14836.8    	32.60981
676.0000      	14792.9    	32.50613
678.0000      	14749.3    	32.35386
680.0000      	14705.9    	32.16754
682.0000      	14662.8    	31.97869
684.0000      	14619.9    	31.74791
686.0000      	14577.3    	31.47041
688.0000      	14534.9    	31.19767
690.0000      	14492.8    	30.97935
692.0000      	14450.9    	30.63709
694.0000      	14409.2    	30.60262
696.0000      	14367.8    	30.43302
698.0000      	14326.6    	30.13465
700.0000      	14285.7    	29.71264
702.0000      	14245    	29.38535
704.0000      	14204.5    	28.98468
706.0000      	14164.3    	28.80161
708.0000      	14124.3    	28.56440
710.0000      	14084.5    	28.35558
712.0000      	14044.9    	28.15359
714.0000      	14005.6    	28.08374
716.0000      	13966.5    	28.32485
718.0000      	13927.6    	28.31181
720.0000      	13888.9    	28.66279
722.0000      	13850.4    	29.32824
724.0000      	13812.2    	29.91049
726.0000      	13774.1    	30.33588
728.0000      	13736.3    	30.72431
730.0000      	13698.6    	31.71535
732.0000      	13661.2    	32.32238
734.0000      	13624    	33.40028
736.0000      	13587    	34.23180
738.0000      	13550.1    	35.34339
740.0000      	13513.5    	37.14684
742.0000      	13477.1    	38.30133
744.0000      	13440.9    	40.22994
746.0000      	13404.8    	42.33204
748.0000      	13369    	44.25527
750.0000      	13333.3    	46.64330
752.0000      	13297.9    	48.86596
754.0000      	13262.6    	51.59655
756.0000      	13227.5    	53.86186
758.0000      	13192.6    	56.95505
760.0000      	13157.9    	59.39633
762.0000      	13123.4    	61.28495
764.0000      	13089    	63.54062
766.0000      	13054.8    	64.83720
768.0000      	13020.8    	66.29457
770.0000      	12987    	67.26380
772.0000      	12953.4    	68.25853
774.0000      	12919.9    	68.89549
776.0000      	12886.6    	69.50501
778.0000      	12853.5    	69.90060
780.0000      	12820.5    	70.59847
782.0000      	12787.7    	70.80814
784.0000      	12755.1    	71.07688
786.0000      	12722.6    	71.32415
788.0000      	12690.4    	71.37604
790.0000      	12658.2    	71.57613
792.0000      	12626.3    	70.89910
794.0000      	12594.5    	71.34315
796.0000      	12562.8    	71.46661
798.0000      	12531.3    	71.40940
800.0000      	12500    	71.46337