Folder: Ophiomastix_wendtii_orientation/data/Reflectance_measurements/Reflectance_2019_material/50_white (part 2)

File: 50_white_3.txt
Unit Serial No : 240-IM0P2424-EU
Integration Time : 10 ms
Time Average: 10
Binning Average: 2
FFT Smoothing: 0%
Project Name : RPS900-R
Sample Name :  SM240-IMOP2424-EU
Measurement No : 1
Measurement Time : 06/03/2019   14:43:13

Wavelength(nm)	Wavenumber(1/cm)	Transmittance(%)
300.0000      	33333.3    	13.55721
302.0000      	33112.6    	12.73677
304.0000      	32894.7    	13.53183
306.0000      	32679.7    	11.50269
308.0000      	32467.5    	11.66106
310.0000      	32258.1    	10.61573
312.0000      	32051.3    	9.81946
314.0000      	31847.1    	10.88906
316.0000      	31645.6    	10.47270
318.0000      	31446.5    	9.59891
320.0000      	31250    	8.86249
322.0000      	31055.9    	8.57605
324.0000      	30864.2    	8.49376
326.0000      	30674.8    	8.06203
328.0000      	30487.8    	8.18305
330.0000      	30303    	7.74759
332.0000      	30120.5    	7.93934
334.0000      	29940.1    	8.06122
336.0000      	29761.9    	7.46934
338.0000      	29585.8    	8.01828
340.0000      	29411.8    	7.65658
342.0000      	29239.8    	7.65190
344.0000      	29069.8    	7.48520
346.0000      	28901.7    	7.44187
348.0000      	28735.6    	7.47211
350.0000      	28571.4    	7.67215
352.0000      	28409.1    	7.79043
354.0000      	28248.6    	7.77094
356.0000      	28089.9    	8.09509
358.0000      	27933    	7.92379
360.0000      	27777.8    	8.34582
362.0000      	27624.3    	8.51187
364.0000      	27472.5    	8.34713
366.0000      	27322.4    	8.50083
368.0000      	27173.9    	8.85160
370.0000      	27027    	8.89764
372.0000      	26881.7    	8.96072
374.0000      	26738    	9.32945
376.0000      	26595.7    	9.66630
378.0000      	26455    	9.89221
380.0000      	26315.8    	10.39957
382.0000      	26178    	10.69485
384.0000      	26041.7    	11.19100
386.0000      	25906.7    	11.62024
388.0000      	25773.2    	12.12832
390.0000      	25641    	12.70338
392.0000      	25510.2    	12.83809
394.0000      	25380.7    	13.48620
396.0000      	25252.5    	14.37381
398.0000      	25125.6    	15.01042
400.0000      	25000    	15.56589
402.0000      	24875.6    	16.17451
404.0000      	24752.5    	16.81750
406.0000      	24630.5    	17.74609
408.0000      	24509.8    	18.48042
410.0000      	24390.2    	19.36102
412.0000      	24271.8    	19.88157
414.0000      	24154.6    	20.71913
416.0000      	24038.5    	21.25578
418.0000      	23923.4    	21.64769
420.0000      	23809.5    	21.99807
422.0000      	23696.7    	21.94791
424.0000      	23584.9    	22.48001
426.0000      	23474.2    	22.77875
428.0000      	23364.5    	23.08681
430.0000      	23255.8    	23.21591
432.0000      	23148.1    	23.63058
434.0000      	23041.5    	23.76911
436.0000      	22935.8    	24.23177
438.0000      	22831.1    	24.52830
440.0000      	22727.3    	24.83427
442.0000      	22624.4    	25.05717
444.0000      	22522.5    	25.19460
446.0000      	22421.5    	25.26500
448.0000      	22321.4    	25.30292
450.0000      	22222.2    	25.19958
452.0000      	22123.9    	25.45537
454.0000      	22026.4    	25.70620
456.0000      	21929.8    	25.91100
458.0000      	21834.1    	26.00649
460.0000      	21739.1    	26.34999
462.0000      	21645    	26.68924
464.0000      	21551.7    	27.01344
466.0000      	21459.2    	27.49772
468.0000      	21367.5    	27.58322
470.0000      	21276.6    	27.98199
472.0000      	21186.4    	28.56461
474.0000      	21097    	29.15771
476.0000      	21008.4    	29.61446
478.0000      	20920.5    	29.92596
480.0000      	20833.3    	30.44748
482.0000      	20746.9    	31.13123
484.0000      	20661.2    	31.62508
486.0000      	20576.1    	32.09853
488.0000      	20491.8    	32.63894
490.0000      	20408.2    	33.24433
492.0000      	20325.2    	33.70554
494.0000      	20242.9    	34.25493
496.0000      	20161.3    	34.70967
498.0000      	20080.3    	35.15087
500.0000      	20000    	35.34798
502.0000      	19920.3    	35.55833
504.0000      	19841.3    	35.65194
506.0000      	19762.8    	35.46745
508.0000      	19685    	35.20342
510.0000      	19607.8    	34.67628
512.0000      	19531.2    	33.78078
514.0000      	19455.3    	33.11160
516.0000      	19379.8    	32.02070
518.0000      	19305    	30.72007
520.0000      	19230.8    	29.72797
522.0000      	19157.1    	28.39018
524.0000      	19084    	27.14300
526.0000      	19011.4    	26.22943
528.0000      	18939.4    	25.21822
530.0000      	18867.9    	24.40916
532.0000      	18797    	23.71959
534.0000      	18726.6    	23.40401
536.0000      	18656.7    	22.96369
538.0000      	18587.4    	22.75527
540.0000      	18518.5    	22.73501
542.0000      	18450.2    	22.61928
544.0000      	18382.4    	22.64867
546.0000      	18315    	22.59783
548.0000      	18248.2    	22.46959
550.0000      	18181.8    	22.31609
552.0000      	18115.9    	22.00136
554.0000      	18050.5    	21.41599
556.0000      	17985.6    	20.75845
558.0000      	17921.1    	20.19455
560.0000      	17857.1    	19.47771
562.0000      	17793.6    	18.80786
564.0000      	17730.5    	18.32361
566.0000      	17667.8    	17.82684
568.0000      	17605.6    	17.51225
570.0000      	17543.9    	17.41374
572.0000      	17482.5    	17.53680
574.0000      	17421.6    	17.93968
576.0000      	17361.1    	18.33505
578.0000      	17301    	19.14038
580.0000      	17241.4    	20.11553
582.0000      	17182.1    	21.09114
584.0000      	17123.3    	22.16498
586.0000      	17064.8    	23.36984
588.0000      	17006.8    	24.18084
590.0000      	16949.2    	25.21994
592.0000      	16891.9    	26.02019
594.0000      	16835    	26.51329
596.0000      	16778.5    	26.98175
598.0000      	16722.4    	27.28475
600.0000      	16666.7    	27.30568
602.0000      	16611.3    	27.43857
604.0000      	16556.3    	27.36103
606.0000      	16501.7    	27.30135
608.0000      	16447.4    	27.19231
610.0000      	16393.4    	27.19867
612.0000      	16339.9    	27.24881
614.0000      	16286.6    	27.14427
616.0000      	16233.8    	27.14318
618.0000      	16181.2    	27.24866
620.0000      	16129    	27.31539
622.0000      	16077.2    	27.27886
624.0000      	16025.6    	27.25653
626.0000      	15974.4    	27.38891
628.0000      	15923.6    	27.49091
630.0000      	15873    	27.43286
632.0000      	15822.8    	27.58877
634.0000      	15772.9    	27.79211
636.0000      	15723.3    	28.02739
638.0000      	15674    	28.10149
640.0000      	15625    	28.38565
642.0000      	15576.3    	28.60361
644.0000      	15528    	29.10505
646.0000      	15479.9    	29.56305
648.0000      	15432.1    	29.90932
650.0000      	15384.6    	30.50073
652.0000      	15337.4    	31.08133
654.0000      	15290.5    	31.54969
656.0000      	15243.9    	32.20207
658.0000      	15197.6    	32.60972
660.0000      	15151.5    	33.24294
662.0000      	15105.7    	33.78318
664.0000      	15060.2    	34.12157
666.0000      	15015    	34.57077
668.0000      	14970.1    	34.76702
670.0000      	14925.4    	34.88680
672.0000      	14881    	34.86163
674.0000      	14836.8    	34.82696
676.0000      	14792.9    	34.86032
678.0000      	14749.3    	34.76696
680.0000      	14705.9    	34.44535
682.0000      	14662.8    	34.24881
684.0000      	14619.9    	34.01618
686.0000      	14577.3    	33.49592
688.0000      	14534.9    	33.34724
690.0000      	14492.8    	33.33090
692.0000      	14450.9    	32.85089
694.0000      	14409.2    	32.67135
696.0000      	14367.8    	32.41710
698.0000      	14326.6    	32.12581
700.0000      	14285.7    	31.98915
702.0000      	14245    	31.59201
704.0000      	14204.5    	31.26677
706.0000      	14164.3    	30.73732
708.0000      	14124.3    	30.62007
710.0000      	14084.5    	30.46332
712.0000      	14044.9    	30.14264
714.0000      	14005.6    	29.98035
716.0000      	13966.5    	30.35672
718.0000      	13927.6    	30.70468
720.0000      	13888.9    	31.05862
722.0000      	13850.4    	31.43288
724.0000      	13812.2    	32.01384
726.0000      	13774.1    	32.83546
728.0000      	13736.3    	33.34794
730.0000      	13698.6    	34.22081
732.0000      	13661.2    	34.85040
734.0000      	13624    	36.18817
736.0000      	13587    	37.41813
738.0000      	13550.1    	38.89867
740.0000      	13513.5    	40.54134
742.0000      	13477.1    	42.05494
744.0000      	13440.9    	44.39395
746.0000      	13404.8    	46.71498
748.0000      	13369    	48.90802
750.0000      	13333.3    	51.93229
752.0000      	13297.9    	54.29036
754.0000      	13262.6    	58.02593
756.0000      	13227.5    	60.94507
758.0000      	13192.6    	64.33817
760.0000      	13157.9    	67.88308
762.0000      	13123.4    	70.13139
764.0000      	13089    	72.99526
766.0000      	13054.8    	74.95444
768.0000      	13020.8    	76.55986
770.0000      	12987    	77.60889
772.0000      	12953.4    	79.33502
774.0000      	12919.9    	80.32172
776.0000      	12886.6    	80.79025
778.0000      	12853.5    	81.82409
780.0000      	12820.5    	82.00146
782.0000      	12787.7    	82.53677
784.0000      	12755.1    	83.37168
786.0000      	12722.6    	83.54906
788.0000      	12690.4    	83.92220
790.0000      	12658.2    	84.27370
792.0000      	12626.3    	83.45526
794.0000      	12594.5    	83.87643
796.0000      	12562.8    	84.52151
798.0000      	12531.3    	84.21137
800.0000      	12500    	84.49094