Folder: Ophiomastix_wendtii_orientation/data/Reflectance_measurements/Reflectance_2019_material/6 (part 2)

File: 6_3.txt
Unit Serial No : 240-IM0P2424-EU
Integration Time : 10 ms
Time Average: 10
Binning Average: 2
FFT Smoothing: 0%
Project Name : RPS900-R
Sample Name :  SM240-IMOP2424-EU
Measurement No : 1
Measurement Time : 06/03/2019   16:43:55

Wavelength(nm)	Wavenumber(1/cm)	Transmittance(%)
300.0000      	33333.3    	15.40469
302.0000      	33112.6    	14.54112
304.0000      	32894.7    	14.48688
306.0000      	32679.7    	12.79734
308.0000      	32467.5    	12.50864
310.0000      	32258.1    	11.31224
312.0000      	32051.3    	10.47982
314.0000      	31847.1    	11.68808
316.0000      	31645.6    	10.45464
318.0000      	31446.5    	9.97822
320.0000      	31250    	9.70370
322.0000      	31055.9    	8.76574
324.0000      	30864.2    	9.53859
326.0000      	30674.8    	8.73109
328.0000      	30487.8    	8.27172
330.0000      	30303    	8.93412
332.0000      	30120.5    	8.52217
334.0000      	29940.1    	8.00714
336.0000      	29761.9    	8.74020
338.0000      	29585.8    	8.74233
340.0000      	29411.8    	9.19960
342.0000      	29239.8    	9.09042
344.0000      	29069.8    	9.15431
346.0000      	28901.7    	9.78092
348.0000      	28735.6    	9.74659
350.0000      	28571.4    	9.62354
352.0000      	28409.1    	10.39946
354.0000      	28248.6    	10.55526
356.0000      	28089.9    	11.13947
358.0000      	27933    	11.98834
360.0000      	27777.8    	12.58704
362.0000      	27624.3    	13.24329
364.0000      	27472.5    	13.97952
366.0000      	27322.4    	14.72246
368.0000      	27173.9    	15.18749
370.0000      	27027    	15.92496
372.0000      	26881.7    	16.28236
374.0000      	26738    	17.31137
376.0000      	26595.7    	18.01494
378.0000      	26455    	19.19066
380.0000      	26315.8    	20.61467
382.0000      	26178    	21.35835
384.0000      	26041.7    	22.61408
386.0000      	25906.7    	24.01208
388.0000      	25773.2    	25.02803
390.0000      	25641    	25.93199
392.0000      	25510.2    	26.82672
394.0000      	25380.7    	27.93361
396.0000      	25252.5    	29.73509
398.0000      	25125.6    	31.14377
400.0000      	25000    	32.94399
402.0000      	24875.6    	34.68287
404.0000      	24752.5    	37.31051
406.0000      	24630.5    	40.46153
408.0000      	24509.8    	43.93016
410.0000      	24390.2    	47.07729
412.0000      	24271.8    	50.18270
414.0000      	24154.6    	53.27357
416.0000      	24038.5    	55.93508
418.0000      	23923.4    	57.99833
420.0000      	23809.5    	59.12378
422.0000      	23696.7    	60.27556
424.0000      	23584.9    	61.53065
426.0000      	23474.2    	61.97693
428.0000      	23364.5    	63.11739
430.0000      	23255.8    	64.07520
432.0000      	23148.1    	65.41725
434.0000      	23041.5    	66.51888
436.0000      	22935.8    	67.22321
438.0000      	22831.1    	67.52657
440.0000      	22727.3    	67.93790
442.0000      	22624.4    	67.86180
444.0000      	22522.5    	67.60591
446.0000      	22421.5    	67.15937
448.0000      	22321.4    	66.13882
450.0000      	22222.2    	65.13976
452.0000      	22123.9    	64.87127
454.0000      	22026.4    	64.60185
456.0000      	21929.8    	64.06704
458.0000      	21834.1    	64.08003
460.0000      	21739.1    	63.91173
462.0000      	21645    	63.86971
464.0000      	21551.7    	63.54843
466.0000      	21459.2    	63.38233
468.0000      	21367.5    	63.26966
470.0000      	21276.6    	63.35579
472.0000      	21186.4    	63.60341
474.0000      	21097    	63.86230
476.0000      	21008.4    	64.07444
478.0000      	20920.5    	64.07882
480.0000      	20833.3    	64.07578
482.0000      	20746.9    	63.80504
484.0000      	20661.2    	63.89124
486.0000      	20576.1    	63.84142
488.0000      	20491.8    	63.98801
490.0000      	20408.2    	63.98939
492.0000      	20325.2    	63.92728
494.0000      	20242.9    	64.06676
496.0000      	20161.3    	64.15146
498.0000      	20080.3    	64.19582
500.0000      	20000    	64.12350
502.0000      	19920.3    	64.00482
504.0000      	19841.3    	64.02447
506.0000      	19762.8    	63.83819
508.0000      	19685    	63.47005
510.0000      	19607.8    	63.21371
512.0000      	19531.2    	62.86946
514.0000      	19455.3    	62.49710
516.0000      	19379.8    	62.06032
518.0000      	19305    	61.40844
520.0000      	19230.8    	60.99135
522.0000      	19157.1    	60.39925
524.0000      	19084    	59.86043
526.0000      	19011.4    	59.51822
528.0000      	18939.4    	59.00417
530.0000      	18867.9    	58.59148
532.0000      	18797    	58.32617
534.0000      	18726.6    	58.14653
536.0000      	18656.7    	57.85668
538.0000      	18587.4    	57.66414
540.0000      	18518.5    	57.63394
542.0000      	18450.2    	57.49990
544.0000      	18382.4    	57.40299
546.0000      	18315    	57.24390
548.0000      	18248.2    	57.06437
550.0000      	18181.8    	56.78796
552.0000      	18115.9    	56.47160
554.0000      	18050.5    	56.08115
556.0000      	17985.6    	55.56892
558.0000      	17921.1    	54.99975
560.0000      	17857.1    	54.30745
562.0000      	17793.6    	53.64705
564.0000      	17730.5    	53.08549
566.0000      	17667.8    	52.60225
568.0000      	17605.6    	52.14372
570.0000      	17543.9    	51.85889
572.0000      	17482.5    	51.69264
574.0000      	17421.6    	51.84821
576.0000      	17361.1    	52.27830
578.0000      	17301    	52.92633
580.0000      	17241.4    	53.82505
582.0000      	17182.1    	54.67902
584.0000      	17123.3    	55.65100
586.0000      	17064.8    	56.46581
588.0000      	17006.8    	57.12146
590.0000      	16949.2    	57.66900
592.0000      	16891.9    	58.02822
594.0000      	16835    	58.16092
596.0000      	16778.5    	58.59887
598.0000      	16722.4    	58.74859
600.0000      	16666.7    	59.02305
602.0000      	16611.3    	58.90373
604.0000      	16556.3    	58.89362
606.0000      	16501.7    	58.85682
608.0000      	16447.4    	58.87896
610.0000      	16393.4    	58.83498
612.0000      	16339.9    	58.65326
614.0000      	16286.6    	58.74731
616.0000      	16233.8    	58.65925
618.0000      	16181.2    	58.65327
620.0000      	16129    	58.47582
622.0000      	16077.2    	58.40401
624.0000      	16025.6    	58.53686
626.0000      	15974.4    	58.50570
628.0000      	15923.6    	58.54385
630.0000      	15873    	58.79112
632.0000      	15822.8    	58.94965
634.0000      	15772.9    	58.87122
636.0000      	15723.3    	59.10152
638.0000      	15674    	59.48428
640.0000      	15625    	59.88183
642.0000      	15576.3    	60.09289
644.0000      	15528    	60.31071
646.0000      	15479.9    	60.97322
648.0000      	15432.1    	61.13588
650.0000      	15384.6    	61.36770
652.0000      	15337.4    	61.64523
654.0000      	15290.5    	62.01545
656.0000      	15243.9    	62.34025
658.0000      	15197.6    	62.78169
660.0000      	15151.5    	63.17268
662.0000      	15105.7    	63.39861
664.0000      	15060.2    	63.74495
666.0000      	15015    	63.75900
668.0000      	14970.1    	63.78492
670.0000      	14925.4    	63.61771
672.0000      	14881    	63.75571
674.0000      	14836.8    	63.51500
676.0000      	14792.9    	63.39459
678.0000      	14749.3    	63.26183
680.0000      	14705.9    	62.94379
682.0000      	14662.8    	62.98434
684.0000      	14619.9    	62.71597
686.0000      	14577.3    	62.50259
688.0000      	14534.9    	62.20513
690.0000      	14492.8    	61.92416
692.0000      	14450.9    	62.05330
694.0000      	14409.2    	62.27333
696.0000      	14367.8    	62.25085
698.0000      	14326.6    	62.19616
700.0000      	14285.7    	62.30585
702.0000      	14245    	62.14672
704.0000      	14204.5    	61.79929
706.0000      	14164.3    	62.09048
708.0000      	14124.3    	62.04887
710.0000      	14084.5    	61.56196
712.0000      	14044.9    	61.47681
714.0000      	14005.6    	61.36917
716.0000      	13966.5    	61.39762
718.0000      	13927.6    	61.63776
720.0000      	13888.9    	61.65468
722.0000      	13850.4    	61.56289
724.0000      	13812.2    	62.05001
726.0000      	13774.1    	62.21244
728.0000      	13736.3    	62.25969
730.0000      	13698.6    	61.99765
732.0000      	13661.2    	62.03823
734.0000      	13624    	62.15788
736.0000      	13587    	62.47795
738.0000      	13550.1    	62.62004
740.0000      	13513.5    	62.89446
742.0000      	13477.1    	63.01634
744.0000      	13440.9    	63.26488
746.0000      	13404.8    	63.45367
748.0000      	13369    	63.76639
750.0000      	13333.3    	64.14886
752.0000      	13297.9    	64.55453
754.0000      	13262.6    	64.81523
756.0000      	13227.5    	64.94600
758.0000      	13192.6    	65.18268
760.0000      	13157.9    	65.19275
762.0000      	13123.4    	65.52393
764.0000      	13089    	65.13806
766.0000      	13054.8    	65.21066
768.0000      	13020.8    	65.26071
770.0000      	12987    	65.58474
772.0000      	12953.4    	65.84447
774.0000      	12919.9    	65.35480
776.0000      	12886.6    	65.93527
778.0000      	12853.5    	65.51081
780.0000      	12820.5    	65.50472
782.0000      	12787.7    	65.92837
784.0000      	12755.1    	65.40957
786.0000      	12722.6    	65.24062
788.0000      	12690.4    	65.74313
790.0000      	12658.2    	65.77901
792.0000      	12626.3    	65.15377
794.0000      	12594.5    	65.92538
796.0000      	12562.8    	65.58349
798.0000      	12531.3    	65.00192
800.0000      	12500    	65.11618