Folder: Ophiomastix_wendtii_orientation/data/Reflectance_measurements/Reflectance_2019_material/63

Note: README.md
# Ophiomastix_wendtii_orientation

We have measured the visual performance of the brittle star *Ophiomastix wendtii* using behavioural experiments. The peer reviewed publication is available at https://doi.org/10.1242/jeb.236653.


### Prerequisites

R 3.6.3 was used for this work, and a similar version is required. The Rstudio  1.2.5 IDE was used.


## Code Authors

* **Lauren Sumner-Rooney** - *Initial work* - []()

* **John D. Kirwan**       - *Initial work* - [](https://github.com/JohnKirwan)


## Code Acknowledgments

* Thanks to James J. Foster for plotting and modelling code.

File: 63_1.txt
Unit Serial No : 240-IM0P2424-EU
Integration Time : 10 ms
Time Average: 10
Binning Average: 2
FFT Smoothing: 0%
Project Name : RPS900-R
Sample Name :  SM240-IMOP2424-EU
Measurement No : 1
Measurement Time : 06/03/2019   14:58:43

Wavelength(nm)	Wavenumber(1/cm)	Transmittance(%)
300.0000      	33333.3    	10.71153
302.0000      	33112.6    	10.15287
304.0000      	32894.7    	7.78636
306.0000      	32679.7    	7.76885
308.0000      	32467.5    	8.94455
310.0000      	32258.1    	8.59938
312.0000      	32051.3    	7.95222
314.0000      	31847.1    	7.45748
316.0000      	31645.6    	7.55029
318.0000      	31446.5    	7.97545
320.0000      	31250    	7.30727
322.0000      	31055.9    	6.99327
324.0000      	30864.2    	6.48241
326.0000      	30674.8    	6.65736
328.0000      	30487.8    	7.44560
330.0000      	30303    	6.11911
332.0000      	30120.5    	6.12272
334.0000      	29940.1    	6.15853
336.0000      	29761.9    	5.67373
338.0000      	29585.8    	5.65837
340.0000      	29411.8    	5.89291
342.0000      	29239.8    	5.91765
344.0000      	29069.8    	5.75387
346.0000      	28901.7    	5.61362
348.0000      	28735.6    	5.43556
350.0000      	28571.4    	5.48252
352.0000      	28409.1    	5.63055
354.0000      	28248.6    	5.98322
356.0000      	28089.9    	5.92090
358.0000      	27933    	5.74047
360.0000      	27777.8    	6.08745
362.0000      	27624.3    	6.41244
364.0000      	27472.5    	6.17316
366.0000      	27322.4    	6.24392
368.0000      	27173.9    	6.27784
370.0000      	27027    	6.40734
372.0000      	26881.7    	6.54474
374.0000      	26738    	6.78073
376.0000      	26595.7    	6.91217
378.0000      	26455    	7.18133
380.0000      	26315.8    	7.38521
382.0000      	26178    	7.35340
384.0000      	26041.7    	7.60031
386.0000      	25906.7    	7.91603
388.0000      	25773.2    	8.24653
390.0000      	25641    	8.69403
392.0000      	25510.2    	8.76743
394.0000      	25380.7    	9.16964
396.0000      	25252.5    	9.38909
398.0000      	25125.6    	9.82926
400.0000      	25000    	10.07954
402.0000      	24875.6    	10.33058
404.0000      	24752.5    	10.76142
406.0000      	24630.5    	10.93123
408.0000      	24509.8    	11.40017
410.0000      	24390.2    	11.90639
412.0000      	24271.8    	12.21919
414.0000      	24154.6    	12.55781
416.0000      	24038.5    	12.70637
418.0000      	23923.4    	12.76513
420.0000      	23809.5    	12.85250
422.0000      	23696.7    	13.03631
424.0000      	23584.9    	13.41661
426.0000      	23474.2    	13.61398
428.0000      	23364.5    	13.73694
430.0000      	23255.8    	13.81958
432.0000      	23148.1    	13.97453
434.0000      	23041.5    	14.17479
436.0000      	22935.8    	14.37251
438.0000      	22831.1    	14.57915
440.0000      	22727.3    	14.77990
442.0000      	22624.4    	14.74254
444.0000      	22522.5    	15.05803
446.0000      	22421.5    	15.09944
448.0000      	22321.4    	15.04766
450.0000      	22222.2    	15.13825
452.0000      	22123.9    	15.28729
454.0000      	22026.4    	15.42606
456.0000      	21929.8    	15.61892
458.0000      	21834.1    	15.81851
460.0000      	21739.1    	16.04490
462.0000      	21645    	16.18554
464.0000      	21551.7    	16.45358
466.0000      	21459.2    	16.71208
468.0000      	21367.5    	17.04540
470.0000      	21276.6    	17.27405
472.0000      	21186.4    	17.52152
474.0000      	21097    	17.94722
476.0000      	21008.4    	18.35855
478.0000      	20920.5    	18.61595
480.0000      	20833.3    	19.07378
482.0000      	20746.9    	19.46091
484.0000      	20661.2    	19.88933
486.0000      	20576.1    	20.21456
488.0000      	20491.8    	20.63585
490.0000      	20408.2    	21.11988
492.0000      	20325.2    	21.40570
494.0000      	20242.9    	21.82757
496.0000      	20161.3    	22.19627
498.0000      	20080.3    	22.43430
500.0000      	20000    	22.62883
502.0000      	19920.3    	22.82158
504.0000      	19841.3    	22.88634
506.0000      	19762.8    	22.79996
508.0000      	19685    	22.56635
510.0000      	19607.8    	22.17772
512.0000      	19531.2    	21.67576
514.0000      	19455.3    	21.14194
516.0000      	19379.8    	20.33593
518.0000      	19305    	19.52133
520.0000      	19230.8    	18.89105
522.0000      	19157.1    	17.90922
524.0000      	19084    	17.09501
526.0000      	19011.4    	16.46105
528.0000      	18939.4    	15.82465
530.0000      	18867.9    	15.25624
532.0000      	18797    	14.82280
534.0000      	18726.6    	14.51604
536.0000      	18656.7    	14.21176
538.0000      	18587.4    	14.13633
540.0000      	18518.5    	14.08562
542.0000      	18450.2    	14.00434
544.0000      	18382.4    	13.99054
546.0000      	18315    	13.97058
548.0000      	18248.2    	13.95806
550.0000      	18181.8    	13.76440
552.0000      	18115.9    	13.56040
554.0000      	18050.5    	13.23974
556.0000      	17985.6    	12.71016
558.0000      	17921.1    	12.39180
560.0000      	17857.1    	11.96793
562.0000      	17793.6    	11.44606
564.0000      	17730.5    	11.18864
566.0000      	17667.8    	10.90596
568.0000      	17605.6    	10.76274
570.0000      	17543.9    	10.72590
572.0000      	17482.5    	10.76953
574.0000      	17421.6    	11.03331
576.0000      	17361.1    	11.28589
578.0000      	17301    	11.70755
580.0000      	17241.4    	12.35787
582.0000      	17182.1    	12.91764
584.0000      	17123.3    	13.55188
586.0000      	17064.8    	14.42971
588.0000      	17006.8    	15.00782
590.0000      	16949.2    	15.64812
592.0000      	16891.9    	16.19976
594.0000      	16835    	16.57632
596.0000      	16778.5    	16.90012
598.0000      	16722.4    	17.15461
600.0000      	16666.7    	17.24091
602.0000      	16611.3    	17.25577
604.0000      	16556.3    	17.17274
606.0000      	16501.7    	17.20636
608.0000      	16447.4    	17.19822
610.0000      	16393.4    	17.12722
612.0000      	16339.9    	17.22062
614.0000      	16286.6    	17.19097
616.0000      	16233.8    	17.23792
618.0000      	16181.2    	17.20662
620.0000      	16129    	17.31424
622.0000      	16077.2    	17.28388
624.0000      	16025.6    	17.31130
626.0000      	15974.4    	17.30376
628.0000      	15923.6    	17.46700
630.0000      	15873    	17.50690
632.0000      	15822.8    	17.54244
634.0000      	15772.9    	17.66857
636.0000      	15723.3    	17.73263
638.0000      	15674    	17.78938
640.0000      	15625    	17.98292
642.0000      	15576.3    	18.14287
644.0000      	15528    	18.25666
646.0000      	15479.9    	18.53856
648.0000      	15432.1    	18.78122
650.0000      	15384.6    	19.07383
652.0000      	15337.4    	19.34559
654.0000      	15290.5    	19.57803
656.0000      	15243.9    	19.98757
658.0000      	15197.6    	20.25231
660.0000      	15151.5    	20.62745
662.0000      	15105.7    	20.99120
664.0000      	15060.2    	21.26001
666.0000      	15015    	21.30020
668.0000      	14970.1    	21.58634
670.0000      	14925.4    	21.54146
672.0000      	14881    	21.59511
674.0000      	14836.8    	21.60513
676.0000      	14792.9    	21.42279
678.0000      	14749.3    	21.30437
680.0000      	14705.9    	21.22363
682.0000      	14662.8    	21.28135
684.0000      	14619.9    	21.05637
686.0000      	14577.3    	20.85167
688.0000      	14534.9    	20.65799
690.0000      	14492.8    	20.44567
692.0000      	14450.9    	20.34420
694.0000      	14409.2    	20.26383
696.0000      	14367.8    	20.06333
698.0000      	14326.6    	19.79321
700.0000      	14285.7    	19.49477
702.0000      	14245    	19.28822
704.0000      	14204.5    	19.14480
706.0000      	14164.3    	18.82614
708.0000      	14124.3    	18.61835
710.0000      	14084.5    	18.37827
712.0000      	14044.9    	18.34741
714.0000      	14005.6    	18.22268
716.0000      	13966.5    	18.43544
718.0000      	13927.6    	18.65829
720.0000      	13888.9    	18.95224
722.0000      	13850.4    	19.25527
724.0000      	13812.2    	19.53032
726.0000      	13774.1    	19.98826
728.0000      	13736.3    	20.15425
730.0000      	13698.6    	20.80539
732.0000      	13661.2    	21.27224
734.0000      	13624    	22.04382
736.0000      	13587    	22.99175
738.0000      	13550.1    	23.90688
740.0000      	13513.5    	24.89591
742.0000      	13477.1    	25.80727
744.0000      	13440.9    	27.43449
746.0000      	13404.8    	29.26381
748.0000      	13369    	30.34569
750.0000      	13333.3    	32.32415
752.0000      	13297.9    	34.16429
754.0000      	13262.6    	36.69617
756.0000      	13227.5    	38.56902
758.0000      	13192.6    	40.88213
760.0000      	13157.9    	43.18602
762.0000      	13123.4    	44.97021
764.0000      	13089    	47.09304
766.0000      	13054.8    	48.45633
768.0000      	13020.8    	49.78254
770.0000      	12987    	50.77785
772.0000      	12953.4    	51.81312
774.0000      	12919.9    	52.37470
776.0000      	12886.6    	52.97973
778.0000      	12853.5    	53.51505
780.0000      	12820.5    	53.73049
782.0000      	12787.7    	54.44801
784.0000      	12755.1    	54.93015
786.0000      	12722.6    	54.80180
788.0000      	12690.4    	54.96400
790.0000      	12658.2    	55.16200
792.0000      	12626.3    	54.78265
794.0000      	12594.5    	54.93244
796.0000      	12562.8    	55.46360
798.0000      	12531.3    	55.35431
800.0000      	12500    	55.65682

File: 63_2.txt
Unit Serial No : 240-IM0P2424-EU
Integration Time : 10 ms
Time Average: 10
Binning Average: 2
FFT Smoothing: 0%
Project Name : RPS900-R
Sample Name :  SM240-IMOP2424-EU
Measurement No : 1
Measurement Time : 06/03/2019   14:58:56

Wavelength(nm)	Wavenumber(1/cm)	Transmittance(%)
300.0000      	33333.3    	11.67868
302.0000      	33112.6    	12.15319
304.0000      	32894.7    	9.63592
306.0000      	32679.7    	9.58751
308.0000      	32467.5    	9.26838
310.0000      	32258.1    	8.45271
312.0000      	32051.3    	8.44448
314.0000      	31847.1    	7.59063
316.0000      	31645.6    	7.45911
318.0000      	31446.5    	8.15514
320.0000      	31250    	6.81579
322.0000      	31055.9    	7.02615
324.0000      	30864.2    	7.06831
326.0000      	30674.8    	6.55998
328.0000      	30487.8    	6.81405
330.0000      	30303    	7.21514
332.0000      	30120.5    	6.24442
334.0000      	29940.1    	6.46238
336.0000      	29761.9    	6.00844
338.0000      	29585.8    	6.09077
340.0000      	29411.8    	6.25064
342.0000      	29239.8    	6.19604
344.0000      	29069.8    	6.15142
346.0000      	28901.7    	5.76413
348.0000      	28735.6    	5.73770
350.0000      	28571.4    	6.12365
352.0000      	28409.1    	6.00672
354.0000      	28248.6    	5.95619
356.0000      	28089.9    	6.46240
358.0000      	27933    	6.42162
360.0000      	27777.8    	6.49458
362.0000      	27624.3    	6.56869
364.0000      	27472.5    	6.19860
366.0000      	27322.4    	6.69537
368.0000      	27173.9    	6.91713
370.0000      	27027    	6.76557
372.0000      	26881.7    	6.99654
374.0000      	26738    	7.03955
376.0000      	26595.7    	7.41310
378.0000      	26455    	7.52163
380.0000      	26315.8    	7.64212
382.0000      	26178    	7.78181
384.0000      	26041.7    	8.39688
386.0000      	25906.7    	8.40654
388.0000      	25773.2    	8.73255
390.0000      	25641    	9.26893
392.0000      	25510.2    	9.41196
394.0000      	25380.7    	9.90989
396.0000      	25252.5    	10.24028
398.0000      	25125.6    	10.57985
400.0000      	25000    	10.92754
402.0000      	24875.6    	11.27726
404.0000      	24752.5    	11.67878
406.0000      	24630.5    	12.07853
408.0000      	24509.8    	12.47451
410.0000      	24390.2    	13.10172
412.0000      	24271.8    	13.46951
414.0000      	24154.6    	13.84061
416.0000      	24038.5    	14.08038
418.0000      	23923.4    	14.17386
420.0000      	23809.5    	14.20128
422.0000      	23696.7    	14.48403
424.0000      	23584.9    	14.74239
426.0000      	23474.2    	15.01631
428.0000      	23364.5    	15.11303
430.0000      	23255.8    	15.09822
432.0000      	23148.1    	15.44364
434.0000      	23041.5    	15.78486
436.0000      	22935.8    	15.90418
438.0000      	22831.1    	16.06412
440.0000      	22727.3    	16.29444
442.0000      	22624.4    	16.25545
444.0000      	22522.5    	16.64897
446.0000      	22421.5    	16.61929
448.0000      	22321.4    	16.53427
450.0000      	22222.2    	16.63396
452.0000      	22123.9    	16.86589
454.0000      	22026.4    	17.05238
456.0000      	21929.8    	17.24468
458.0000      	21834.1    	17.35942
460.0000      	21739.1    	17.68072
462.0000      	21645    	17.88172
464.0000      	21551.7    	18.03400
466.0000      	21459.2    	18.44753
468.0000      	21367.5    	18.72223
470.0000      	21276.6    	18.96874
472.0000      	21186.4    	19.39353
474.0000      	21097    	19.80347
476.0000      	21008.4    	20.10918
478.0000      	20920.5    	20.44827
480.0000      	20833.3    	20.92869
482.0000      	20746.9    	21.33007
484.0000      	20661.2    	21.88295
486.0000      	20576.1    	22.23438
488.0000      	20491.8    	22.63736
490.0000      	20408.2    	23.19142
492.0000      	20325.2    	23.57532
494.0000      	20242.9    	23.96445
496.0000      	20161.3    	24.35330
498.0000      	20080.3    	24.67420
500.0000      	20000    	24.89422
502.0000      	19920.3    	25.05327
504.0000      	19841.3    	25.11455
506.0000      	19762.8    	24.99479
508.0000      	19685    	24.73432
510.0000      	19607.8    	24.24699
512.0000      	19531.2    	23.67774
514.0000      	19455.3    	23.12281
516.0000      	19379.8    	22.27842
518.0000      	19305    	21.21795
520.0000      	19230.8    	20.56443
522.0000      	19157.1    	19.54495
524.0000      	19084    	18.64132
526.0000      	19011.4    	17.93073
528.0000      	18939.4    	17.18281
530.0000      	18867.9    	16.60324
532.0000      	18797    	16.05701
534.0000      	18726.6    	15.77022
536.0000      	18656.7    	15.52365
538.0000      	18587.4    	15.31963
540.0000      	18518.5    	15.17740
542.0000      	18450.2    	15.15778
544.0000      	18382.4    	15.12282
546.0000      	18315    	15.03489
548.0000      	18248.2    	15.09613
550.0000      	18181.8    	14.88942
552.0000      	18115.9    	14.54356
554.0000      	18050.5    	14.16475
556.0000      	17985.6    	13.64874
558.0000      	17921.1    	13.28637
560.0000      	17857.1    	12.77425
562.0000      	17793.6    	12.27769
564.0000      	17730.5    	12.00676
566.0000      	17667.8    	11.73994
568.0000      	17605.6    	11.48741
570.0000      	17543.9    	11.52727
572.0000      	17482.5    	11.54482
574.0000      	17421.6    	11.71809
576.0000      	17361.1    	12.06530
578.0000      	17301    	12.61075
580.0000      	17241.4    	13.28056
582.0000      	17182.1    	13.93801
584.0000      	17123.3    	14.71727
586.0000      	17064.8    	15.61232
588.0000      	17006.8    	16.24398
590.0000      	16949.2    	16.93382
592.0000      	16891.9    	17.63133
594.0000      	16835    	17.97970
596.0000      	16778.5    	18.38753
598.0000      	16722.4    	18.64585
600.0000      	16666.7    	18.73790
602.0000      	16611.3    	18.75408
604.0000      	16556.3    	18.71231
606.0000      	16501.7    	18.77921
608.0000      	16447.4    	18.70452
610.0000      	16393.4    	18.73876
612.0000      	16339.9    	18.76891
614.0000      	16286.6    	18.75258
616.0000      	16233.8    	18.78190
618.0000      	16181.2    	18.70155
620.0000      	16129    	18.71831
622.0000      	16077.2    	18.72162
624.0000      	16025.6    	18.83414
626.0000      	15974.4    	18.92287
628.0000      	15923.6    	18.98659
630.0000      	15873    	19.02364
632.0000      	15822.8    	19.04234
634.0000      	15772.9    	19.19840
636.0000      	15723.3    	19.31304
638.0000      	15674    	19.34916
640.0000      	15625    	19.58743
642.0000      	15576.3    	19.65307
644.0000      	15528    	19.95774
646.0000      	15479.9    	20.31537
648.0000      	15432.1    	20.44382
650.0000      	15384.6    	20.71041
652.0000      	15337.4    	21.07857
654.0000      	15290.5    	21.33162
656.0000      	15243.9    	21.86347
658.0000      	15197.6    	22.18992
660.0000      	15151.5    	22.58615
662.0000      	15105.7    	22.88902
664.0000      	15060.2    	23.08032
666.0000      	15015    	23.24442
668.0000      	14970.1    	23.45105
670.0000      	14925.4    	23.58167
672.0000      	14881    	23.54891
674.0000      	14836.8    	23.57236
676.0000      	14792.9    	23.53903
678.0000      	14749.3    	23.48486
680.0000      	14705.9    	23.30524
682.0000      	14662.8    	23.09672
684.0000      	14619.9    	22.96772
686.0000      	14577.3    	22.70879
688.0000      	14534.9    	22.56709
690.0000      	14492.8    	22.44320
692.0000      	14450.9    	22.14501
694.0000      	14409.2    	22.09273
696.0000      	14367.8    	21.68641
698.0000      	14326.6    	21.53228
700.0000      	14285.7    	21.34091
702.0000      	14245    	20.98700
704.0000      	14204.5    	20.76186
706.0000      	14164.3    	20.46435
708.0000      	14124.3    	20.12260
710.0000      	14084.5    	20.05225
712.0000      	14044.9    	20.04232
714.0000      	14005.6    	19.89084
716.0000      	13966.5    	19.96189
718.0000      	13927.6    	20.18536
720.0000      	13888.9    	20.48323
722.0000      	13850.4    	21.05811
724.0000      	13812.2    	21.33778
726.0000      	13774.1    	21.68515
728.0000      	13736.3    	22.15009
730.0000      	13698.6    	22.80744
732.0000      	13661.2    	23.30428
734.0000      	13624    	24.01121
736.0000      	13587    	24.92070
738.0000      	13550.1    	25.92614
740.0000      	13513.5    	27.18278
742.0000      	13477.1    	28.34815
744.0000      	13440.9    	30.03841
746.0000      	13404.8    	31.84394
748.0000      	13369    	33.52678
750.0000      	13333.3    	35.79366
752.0000      	13297.9    	37.82751
754.0000      	13262.6    	40.47904
756.0000      	13227.5    	42.27091
758.0000      	13192.6    	45.26932
760.0000      	13157.9    	47.98407
762.0000      	13123.4    	49.95646
764.0000      	13089    	53.02672
766.0000      	13054.8    	54.50992
768.0000      	13020.8    	55.67634
770.0000      	12987    	56.68176
772.0000      	12953.4    	58.15535
774.0000      	12919.9    	58.99155
776.0000      	12886.6    	59.58771
778.0000      	12853.5    	59.65811
780.0000      	12820.5    	60.13511
782.0000      	12787.7    	60.74725
784.0000      	12755.1    	60.93185
786.0000      	12722.6    	61.18578
788.0000      	12690.4    	61.95565
790.0000      	12658.2    	61.91233
792.0000      	12626.3    	61.21078
794.0000      	12594.5    	61.41883
796.0000      	12562.8    	62.20147
798.0000      	12531.3    	62.37889
800.0000      	12500    	62.45134