Folder: Ophiomastix_wendtii_orientation/data/Reflectance_measurements/Reflectance_2019_material/63 (part 2)

File: 63_3.txt
Unit Serial No : 240-IM0P2424-EU
Integration Time : 10 ms
Time Average: 10
Binning Average: 2
FFT Smoothing: 0%
Project Name : RPS900-R
Sample Name :  SM240-IMOP2424-EU
Measurement No : 1
Measurement Time : 06/03/2019   14:59:06

Wavelength(nm)	Wavenumber(1/cm)	Transmittance(%)
300.0000      	33333.3    	11.27981
302.0000      	33112.6    	9.65771
304.0000      	32894.7    	7.68432
306.0000      	32679.7    	8.58750
308.0000      	32467.5    	9.76564
310.0000      	32258.1    	8.45698
312.0000      	32051.3    	9.22411
314.0000      	31847.1    	8.57714
316.0000      	31645.6    	7.58744
318.0000      	31446.5    	7.88404
320.0000      	31250    	6.90049
322.0000      	31055.9    	6.79234
324.0000      	30864.2    	7.33478
326.0000      	30674.8    	6.79207
328.0000      	30487.8    	6.52727
330.0000      	30303    	6.62475
332.0000      	30120.5    	6.54178
334.0000      	29940.1    	6.59971
336.0000      	29761.9    	6.07954
338.0000      	29585.8    	6.22391
340.0000      	29411.8    	6.28755
342.0000      	29239.8    	6.22204
344.0000      	29069.8    	5.97824
346.0000      	28901.7    	6.35683
348.0000      	28735.6    	6.21815
350.0000      	28571.4    	6.29855
352.0000      	28409.1    	6.06660
354.0000      	28248.6    	6.07046
356.0000      	28089.9    	6.23933
358.0000      	27933    	6.11657
360.0000      	27777.8    	6.20722
362.0000      	27624.3    	6.50272
364.0000      	27472.5    	6.39275
366.0000      	27322.4    	6.56418
368.0000      	27173.9    	6.96528
370.0000      	27027    	7.01077
372.0000      	26881.7    	7.06687
374.0000      	26738    	7.08740
376.0000      	26595.7    	7.43005
378.0000      	26455    	7.53773
380.0000      	26315.8    	7.68789
382.0000      	26178    	7.87586
384.0000      	26041.7    	8.30303
386.0000      	25906.7    	8.62370
388.0000      	25773.2    	8.85941
390.0000      	25641    	9.09768
392.0000      	25510.2    	9.36902
394.0000      	25380.7    	9.90880
396.0000      	25252.5    	10.36568
398.0000      	25125.6    	10.53418
400.0000      	25000    	11.04470
402.0000      	24875.6    	11.24366
404.0000      	24752.5    	11.60493
406.0000      	24630.5    	12.21402
408.0000      	24509.8    	12.71424
410.0000      	24390.2    	13.05349
412.0000      	24271.8    	13.31758
414.0000      	24154.6    	13.79127
416.0000      	24038.5    	14.10300
418.0000      	23923.4    	14.09139
420.0000      	23809.5    	14.28054
422.0000      	23696.7    	14.61368
424.0000      	23584.9    	14.85142
426.0000      	23474.2    	14.94061
428.0000      	23364.5    	15.23600
430.0000      	23255.8    	15.33505
432.0000      	23148.1    	15.40414
434.0000      	23041.5    	15.71224
436.0000      	22935.8    	15.84499
438.0000      	22831.1    	16.14549
440.0000      	22727.3    	16.42296
442.0000      	22624.4    	16.34245
444.0000      	22522.5    	16.54324
446.0000      	22421.5    	16.61253
448.0000      	22321.4    	16.73526
450.0000      	22222.2    	16.76624
452.0000      	22123.9    	16.99819
454.0000      	22026.4    	17.21220
456.0000      	21929.8    	17.45222
458.0000      	21834.1    	17.53654
460.0000      	21739.1    	17.77841
462.0000      	21645    	17.95412
464.0000      	21551.7    	18.16375
466.0000      	21459.2    	18.60653
468.0000      	21367.5    	18.93462
470.0000      	21276.6    	19.25124
472.0000      	21186.4    	19.43550
474.0000      	21097    	19.85926
476.0000      	21008.4    	20.23273
478.0000      	20920.5    	20.55402
480.0000      	20833.3    	21.06367
482.0000      	20746.9    	21.52520
484.0000      	20661.2    	21.92859
486.0000      	20576.1    	22.27418
488.0000      	20491.8    	22.79577
490.0000      	20408.2    	23.20245
492.0000      	20325.2    	23.61163
494.0000      	20242.9    	24.04894
496.0000      	20161.3    	24.42879
498.0000      	20080.3    	24.67425
500.0000      	20000    	24.82721
502.0000      	19920.3    	24.94022
504.0000      	19841.3    	25.07296
506.0000      	19762.8    	24.96354
508.0000      	19685    	24.75702
510.0000      	19607.8    	24.25585
512.0000      	19531.2    	23.61135
514.0000      	19455.3    	23.13820
516.0000      	19379.8    	22.29856
518.0000      	19305    	21.28863
520.0000      	19230.8    	20.51757
522.0000      	19157.1    	19.55145
524.0000      	19084    	18.63396
526.0000      	19011.4    	18.03653
528.0000      	18939.4    	17.24148
530.0000      	18867.9    	16.61980
532.0000      	18797    	16.15515
534.0000      	18726.6    	15.80222
536.0000      	18656.7    	15.51866
538.0000      	18587.4    	15.31771
540.0000      	18518.5    	15.27379
542.0000      	18450.2    	15.21463
544.0000      	18382.4    	15.22185
546.0000      	18315    	15.20803
548.0000      	18248.2    	15.13706
550.0000      	18181.8    	14.89411
552.0000      	18115.9    	14.59369
554.0000      	18050.5    	14.19398
556.0000      	17985.6    	13.78631
558.0000      	17921.1    	13.41226
560.0000      	17857.1    	12.92569
562.0000      	17793.6    	12.39792
564.0000      	17730.5    	12.12372
566.0000      	17667.8    	11.85195
568.0000      	17605.6    	11.61601
570.0000      	17543.9    	11.59943
572.0000      	17482.5    	11.63887
574.0000      	17421.6    	11.91930
576.0000      	17361.1    	12.19386
578.0000      	17301    	12.71739
580.0000      	17241.4    	13.35533
582.0000      	17182.1    	14.01498
584.0000      	17123.3    	14.75076
586.0000      	17064.8    	15.57139
588.0000      	17006.8    	16.17491
590.0000      	16949.2    	16.97852
592.0000      	16891.9    	17.59987
594.0000      	16835    	17.99764
596.0000      	16778.5    	18.39799
598.0000      	16722.4    	18.61280
600.0000      	16666.7    	18.66841
602.0000      	16611.3    	18.76752
604.0000      	16556.3    	18.79812
606.0000      	16501.7    	18.85425
608.0000      	16447.4    	18.77989
610.0000      	16393.4    	18.83554
612.0000      	16339.9    	18.82604
614.0000      	16286.6    	18.86818
616.0000      	16233.8    	18.82297
618.0000      	16181.2    	18.81595
620.0000      	16129    	18.84711
622.0000      	16077.2    	18.80343
624.0000      	16025.6    	18.94072
626.0000      	15974.4    	19.03381
628.0000      	15923.6    	19.05455
630.0000      	15873    	19.24132
632.0000      	15822.8    	19.21912
634.0000      	15772.9    	19.23183
636.0000      	15723.3    	19.41740
638.0000      	15674    	19.44570
640.0000      	15625    	19.71509
642.0000      	15576.3    	19.84603
644.0000      	15528    	20.08766
646.0000      	15479.9    	20.34269
648.0000      	15432.1    	20.57804
650.0000      	15384.6    	20.84806
652.0000      	15337.4    	21.24638
654.0000      	15290.5    	21.44249
656.0000      	15243.9    	21.79807
658.0000      	15197.6    	22.17977
660.0000      	15151.5    	22.57216
662.0000      	15105.7    	22.85900
664.0000      	15060.2    	23.09093
666.0000      	15015    	23.25040
668.0000      	14970.1    	23.42052
670.0000      	14925.4    	23.57637
672.0000      	14881    	23.71048
674.0000      	14836.8    	23.65424
676.0000      	14792.9    	23.52922
678.0000      	14749.3    	23.49557
680.0000      	14705.9    	23.21649
682.0000      	14662.8    	23.17401
684.0000      	14619.9    	23.02817
686.0000      	14577.3    	22.92289
688.0000      	14534.9    	22.73177
690.0000      	14492.8    	22.40563
692.0000      	14450.9    	22.24453
694.0000      	14409.2    	22.13262
696.0000      	14367.8    	21.85444
698.0000      	14326.6    	21.62413
700.0000      	14285.7    	21.33772
702.0000      	14245    	21.03257
704.0000      	14204.5    	20.93830
706.0000      	14164.3    	20.54449
708.0000      	14124.3    	20.51005
710.0000      	14084.5    	20.31612
712.0000      	14044.9    	19.98949
714.0000      	14005.6    	20.08374
716.0000      	13966.5    	20.25387
718.0000      	13927.6    	20.53660
720.0000      	13888.9    	20.75829
722.0000      	13850.4    	21.27257
724.0000      	13812.2    	21.60036
726.0000      	13774.1    	22.01111
728.0000      	13736.3    	22.28648
730.0000      	13698.6    	23.01779
732.0000      	13661.2    	23.36838
734.0000      	13624    	24.47882
736.0000      	13587    	25.30995
738.0000      	13550.1    	26.23615
740.0000      	13513.5    	27.36693
742.0000      	13477.1    	28.34065
744.0000      	13440.9    	29.95730
746.0000      	13404.8    	31.84005
748.0000      	13369    	33.62776
750.0000      	13333.3    	35.72517
752.0000      	13297.9    	37.52474
754.0000      	13262.6    	40.32278
756.0000      	13227.5    	42.38244
758.0000      	13192.6    	45.05182
760.0000      	13157.9    	48.07973
762.0000      	13123.4    	49.64267
764.0000      	13089    	52.16392
766.0000      	13054.8    	53.90638
768.0000      	13020.8    	55.39213
770.0000      	12987    	56.48287
772.0000      	12953.4    	57.99166
774.0000      	12919.9    	58.84471
776.0000      	12886.6    	59.25148
778.0000      	12853.5    	59.81961
780.0000      	12820.5    	60.41115
782.0000      	12787.7    	60.86170
784.0000      	12755.1    	61.03711
786.0000      	12722.6    	61.35151
788.0000      	12690.4    	61.79101
790.0000      	12658.2    	62.23043
792.0000      	12626.3    	61.71125
794.0000      	12594.5    	62.05864
796.0000      	12562.8    	62.61395
798.0000      	12531.3    	62.27730
800.0000      	12500    	62.53655