Folder: Ophiomastix_wendtii_orientation/data/Reflectance_measurements/Reflectance_2019_material/63_white (part 2)

File: 63_w_3.txt
Unit Serial No : 240-IM0P2424-EU
Integration Time : 10 ms
Time Average: 10
Binning Average: 2
FFT Smoothing: 0%
Project Name : RPS900-R
Sample Name :  SM240-IMOP2424-EU
Measurement No : 1
Measurement Time : 06/03/2019   15:00:20

Wavelength(nm)	Wavenumber(1/cm)	Transmittance(%)
300.0000      	33333.3    	13.34062
302.0000      	33112.6    	11.51458
304.0000      	32894.7    	10.76570
306.0000      	32679.7    	11.11000
308.0000      	32467.5    	9.35433
310.0000      	32258.1    	9.12198
312.0000      	32051.3    	9.06174
314.0000      	31847.1    	8.23458
316.0000      	31645.6    	8.78072
318.0000      	31446.5    	8.77405
320.0000      	31250    	7.24325
322.0000      	31055.9    	7.88741
324.0000      	30864.2    	7.52951
326.0000      	30674.8    	7.11666
328.0000      	30487.8    	6.86275
330.0000      	30303    	6.56679
332.0000      	30120.5    	6.78312
334.0000      	29940.1    	7.39117
336.0000      	29761.9    	6.31673
338.0000      	29585.8    	6.27069
340.0000      	29411.8    	6.21600
342.0000      	29239.8    	5.83695
344.0000      	29069.8    	6.41352
346.0000      	28901.7    	6.04351
348.0000      	28735.6    	6.06135
350.0000      	28571.4    	6.73419
352.0000      	28409.1    	6.09480
354.0000      	28248.6    	6.44193
356.0000      	28089.9    	6.57127
358.0000      	27933    	6.43805
360.0000      	27777.8    	6.66582
362.0000      	27624.3    	6.75446
364.0000      	27472.5    	6.69649
366.0000      	27322.4    	6.85567
368.0000      	27173.9    	6.80235
370.0000      	27027    	6.97773
372.0000      	26881.7    	7.33246
374.0000      	26738    	7.18252
376.0000      	26595.7    	7.32212
378.0000      	26455    	7.73530
380.0000      	26315.8    	7.97549
382.0000      	26178    	8.42881
384.0000      	26041.7    	8.33256
386.0000      	25906.7    	8.34009
388.0000      	25773.2    	8.78387
390.0000      	25641    	9.18687
392.0000      	25510.2    	9.35576
394.0000      	25380.7    	9.81077
396.0000      	25252.5    	10.19258
398.0000      	25125.6    	10.53751
400.0000      	25000    	11.22429
402.0000      	24875.6    	11.46977
404.0000      	24752.5    	11.86917
406.0000      	24630.5    	12.24720
408.0000      	24509.8    	12.75432
410.0000      	24390.2    	13.19631
412.0000      	24271.8    	13.46079
414.0000      	24154.6    	13.70659
416.0000      	24038.5    	14.02083
418.0000      	23923.4    	13.97526
420.0000      	23809.5    	14.35425
422.0000      	23696.7    	14.63549
424.0000      	23584.9    	14.78736
426.0000      	23474.2    	14.91033
428.0000      	23364.5    	15.14517
430.0000      	23255.8    	15.22072
432.0000      	23148.1    	15.39267
434.0000      	23041.5    	15.65776
436.0000      	22935.8    	15.94421
438.0000      	22831.1    	16.13356
440.0000      	22727.3    	16.23426
442.0000      	22624.4    	16.28954
444.0000      	22522.5    	16.63574
446.0000      	22421.5    	16.65089
448.0000      	22321.4    	16.67666
450.0000      	22222.2    	16.76535
452.0000      	22123.9    	16.83542
454.0000      	22026.4    	17.28539
456.0000      	21929.8    	17.47688
458.0000      	21834.1    	17.53371
460.0000      	21739.1    	17.77911
462.0000      	21645    	18.06922
464.0000      	21551.7    	18.16773
466.0000      	21459.2    	18.64711
468.0000      	21367.5    	18.79083
470.0000      	21276.6    	19.08262
472.0000      	21186.4    	19.57863
474.0000      	21097    	20.02385
476.0000      	21008.4    	20.38277
478.0000      	20920.5    	20.69413
480.0000      	20833.3    	21.11957
482.0000      	20746.9    	21.63593
484.0000      	20661.2    	22.10969
486.0000      	20576.1    	22.44257
488.0000      	20491.8    	22.87071
490.0000      	20408.2    	23.45834
492.0000      	20325.2    	23.85756
494.0000      	20242.9    	24.36465
496.0000      	20161.3    	24.69860
498.0000      	20080.3    	25.04470
500.0000      	20000    	25.26278
502.0000      	19920.3    	25.37180
504.0000      	19841.3    	25.55008
506.0000      	19762.8    	25.44772
508.0000      	19685    	25.20250
510.0000      	19607.8    	24.78964
512.0000      	19531.2    	24.14261
514.0000      	19455.3    	23.53967
516.0000      	19379.8    	22.55272
518.0000      	19305    	21.67937
520.0000      	19230.8    	20.98428
522.0000      	19157.1    	19.89679
524.0000      	19084    	18.95292
526.0000      	19011.4    	18.21688
528.0000      	18939.4    	17.48906
530.0000      	18867.9    	16.92052
532.0000      	18797    	16.36850
534.0000      	18726.6    	16.05624
536.0000      	18656.7    	15.78333
538.0000      	18587.4    	15.51423
540.0000      	18518.5    	15.44691
542.0000      	18450.2    	15.42064
544.0000      	18382.4    	15.38842
546.0000      	18315    	15.34863
548.0000      	18248.2    	15.25461
550.0000      	18181.8    	15.07887
552.0000      	18115.9    	14.86857
554.0000      	18050.5    	14.48051
556.0000      	17985.6    	13.95868
558.0000      	17921.1    	13.58513
560.0000      	17857.1    	13.07320
562.0000      	17793.6    	12.53384
564.0000      	17730.5    	12.24900
566.0000      	17667.8    	11.86516
568.0000      	17605.6    	11.64971
570.0000      	17543.9    	11.64632
572.0000      	17482.5    	11.67139
574.0000      	17421.6    	11.92428
576.0000      	17361.1    	12.29241
578.0000      	17301    	12.78075
580.0000      	17241.4    	13.51449
582.0000      	17182.1    	14.17565
584.0000      	17123.3    	14.92061
586.0000      	17064.8    	15.90865
588.0000      	17006.8    	16.49526
590.0000      	16949.2    	17.25149
592.0000      	16891.9    	18.02788
594.0000      	16835    	18.47247
596.0000      	16778.5    	18.78017
598.0000      	16722.4    	19.02839
600.0000      	16666.7    	19.09291
602.0000      	16611.3    	19.14694
604.0000      	16556.3    	19.13007
606.0000      	16501.7    	19.21720
608.0000      	16447.4    	19.19860
610.0000      	16393.4    	19.19476
612.0000      	16339.9    	19.26754
614.0000      	16286.6    	19.29406
616.0000      	16233.8    	19.26027
618.0000      	16181.2    	19.23028
620.0000      	16129    	19.41875
622.0000      	16077.2    	19.39790
624.0000      	16025.6    	19.26202
626.0000      	15974.4    	19.44249
628.0000      	15923.6    	19.62517
630.0000      	15873    	19.58345
632.0000      	15822.8    	19.67211
634.0000      	15772.9    	19.83624
636.0000      	15723.3    	19.92157
638.0000      	15674    	19.97955
640.0000      	15625    	20.22701
642.0000      	15576.3    	20.41345
644.0000      	15528    	20.68192
646.0000      	15479.9    	21.20114
648.0000      	15432.1    	21.33441
650.0000      	15384.6    	21.65076
652.0000      	15337.4    	22.13477
654.0000      	15290.5    	22.41752
656.0000      	15243.9    	22.91922
658.0000      	15197.6    	23.19710
660.0000      	15151.5    	23.67283
662.0000      	15105.7    	24.25407
664.0000      	15060.2    	24.51825
666.0000      	15015    	24.66076
668.0000      	14970.1    	24.76091
670.0000      	14925.4    	25.00033
672.0000      	14881    	25.01342
674.0000      	14836.8    	25.05185
676.0000      	14792.9    	24.93344
678.0000      	14749.3    	24.85125
680.0000      	14705.9    	24.73312
682.0000      	14662.8    	24.59129
684.0000      	14619.9    	24.54748
686.0000      	14577.3    	24.34999
688.0000      	14534.9    	23.96221
690.0000      	14492.8    	23.86902
692.0000      	14450.9    	23.59212
694.0000      	14409.2    	23.34806
696.0000      	14367.8    	23.20115
698.0000      	14326.6    	23.07451
700.0000      	14285.7    	22.86462
702.0000      	14245    	22.45737
704.0000      	14204.5    	22.27384
706.0000      	14164.3    	21.80477
708.0000      	14124.3    	21.62259
710.0000      	14084.5    	21.61127
712.0000      	14044.9    	21.28546
714.0000      	14005.6    	21.33125
716.0000      	13966.5    	21.54286
718.0000      	13927.6    	21.65292
720.0000      	13888.9    	21.99974
722.0000      	13850.4    	22.42679
724.0000      	13812.2    	22.88584
726.0000      	13774.1    	23.57875
728.0000      	13736.3    	23.94235
730.0000      	13698.6    	24.56051
732.0000      	13661.2    	25.13058
734.0000      	13624    	26.20983
736.0000      	13587    	27.18755
738.0000      	13550.1    	28.26566
740.0000      	13513.5    	29.84671
742.0000      	13477.1    	30.81367
744.0000      	13440.9    	32.62150
746.0000      	13404.8    	34.89846
748.0000      	13369    	36.67387
750.0000      	13333.3    	39.33164
752.0000      	13297.9    	41.55442
754.0000      	13262.6    	44.63589
756.0000      	13227.5    	47.34003
758.0000      	13192.6    	50.81863
760.0000      	13157.9    	54.23885
762.0000      	13123.4    	56.75602
764.0000      	13089    	59.60754
766.0000      	13054.8    	61.64687
768.0000      	13020.8    	63.68535
770.0000      	12987    	65.12849
772.0000      	12953.4    	66.58590
774.0000      	12919.9    	67.63209
776.0000      	12886.6    	68.95325
778.0000      	12853.5    	69.41068
780.0000      	12820.5    	70.11074
782.0000      	12787.7    	70.55563
784.0000      	12755.1    	70.82501
786.0000      	12722.6    	71.90629
788.0000      	12690.4    	71.93092
790.0000      	12658.2    	72.01820
792.0000      	12626.3    	72.53712
794.0000      	12594.5    	73.09878
796.0000      	12562.8    	72.98700
798.0000      	12531.3    	72.74170
800.0000      	12500    	73.07752