Folder: Ophiomastix_wendtii_orientation/data/Reflectance_measurements/Reflectance_2019_material/63_white

Note: README.md
# Ophiomastix_wendtii_orientation

We have measured the visual performance of the brittle star *Ophiomastix wendtii* using behavioural experiments. The peer reviewed publication is available at https://doi.org/10.1242/jeb.236653.


### Prerequisites

R 3.6.3 was used for this work, and a similar version is required. The Rstudio  1.2.5 IDE was used.


## Code Authors

* **Lauren Sumner-Rooney** - *Initial work* - []()

* **John D. Kirwan**       - *Initial work* - [](https://github.com/JohnKirwan)


## Code Acknowledgments

* Thanks to James J. Foster for plotting and modelling code.

File: 63_w_1 .txt
Unit Serial No : 240-IM0P2424-EU
Integration Time : 10 ms
Time Average: 10
Binning Average: 2
FFT Smoothing: 0%
Project Name : RPS900-R
Sample Name :  SM240-IMOP2424-EU
Measurement No : 1
Measurement Time : 06/03/2019   14:59:43

Wavelength(nm)	Wavenumber(1/cm)	Transmittance(%)
300.0000      	33333.3    	12.89672
302.0000      	33112.6    	10.97815
304.0000      	32894.7    	8.54259
306.0000      	32679.7    	9.80382
308.0000      	32467.5    	9.48632
310.0000      	32258.1    	9.64315
312.0000      	32051.3    	8.39036
314.0000      	31847.1    	8.96447
316.0000      	31645.6    	8.26063
318.0000      	31446.5    	8.76144
320.0000      	31250    	7.38213
322.0000      	31055.9    	7.66364
324.0000      	30864.2    	6.77878
326.0000      	30674.8    	6.82371
328.0000      	30487.8    	7.10084
330.0000      	30303    	6.49291
332.0000      	30120.5    	6.76583
334.0000      	29940.1    	6.70519
336.0000      	29761.9    	6.25130
338.0000      	29585.8    	6.62153
340.0000      	29411.8    	6.26994
342.0000      	29239.8    	6.25129
344.0000      	29069.8    	6.46315
346.0000      	28901.7    	5.95743
348.0000      	28735.6    	5.76303
350.0000      	28571.4    	6.17571
352.0000      	28409.1    	6.16943
354.0000      	28248.6    	6.45831
356.0000      	28089.9    	6.43498
358.0000      	27933    	6.30484
360.0000      	27777.8    	6.31287
362.0000      	27624.3    	6.50489
364.0000      	27472.5    	6.73055
366.0000      	27322.4    	6.82450
368.0000      	27173.9    	6.82052
370.0000      	27027    	7.12195
372.0000      	26881.7    	7.12572
374.0000      	26738    	7.20878
376.0000      	26595.7    	7.51962
378.0000      	26455    	7.69436
380.0000      	26315.8    	7.97337
382.0000      	26178    	8.15802
384.0000      	26041.7    	8.33932
386.0000      	25906.7    	8.50791
388.0000      	25773.2    	8.67079
390.0000      	25641    	9.17629
392.0000      	25510.2    	9.33260
394.0000      	25380.7    	9.69151
396.0000      	25252.5    	10.15626
398.0000      	25125.6    	10.54356
400.0000      	25000    	11.00017
402.0000      	24875.6    	11.28509
404.0000      	24752.5    	11.69557
406.0000      	24630.5    	12.15792
408.0000      	24509.8    	12.68919
410.0000      	24390.2    	13.11449
412.0000      	24271.8    	13.45151
414.0000      	24154.6    	13.74635
416.0000      	24038.5    	14.11169
418.0000      	23923.4    	13.96239
420.0000      	23809.5    	14.29771
422.0000      	23696.7    	14.55627
424.0000      	23584.9    	14.89570
426.0000      	23474.2    	14.91068
428.0000      	23364.5    	15.08141
430.0000      	23255.8    	15.17305
432.0000      	23148.1    	15.59278
434.0000      	23041.5    	15.63563
436.0000      	22935.8    	16.00263
438.0000      	22831.1    	16.17326
440.0000      	22727.3    	16.47114
442.0000      	22624.4    	16.34113
444.0000      	22522.5    	16.72751
446.0000      	22421.5    	16.64414
448.0000      	22321.4    	16.64544
450.0000      	22222.2    	16.71450
452.0000      	22123.9    	16.84725
454.0000      	22026.4    	17.19377
456.0000      	21929.8    	17.31558
458.0000      	21834.1    	17.55600
460.0000      	21739.1    	17.85831
462.0000      	21645    	17.97475
464.0000      	21551.7    	18.18016
466.0000      	21459.2    	18.62549
468.0000      	21367.5    	18.82482
470.0000      	21276.6    	19.15855
472.0000      	21186.4    	19.48346
474.0000      	21097    	19.89994
476.0000      	21008.4    	20.28447
478.0000      	20920.5    	20.60519
480.0000      	20833.3    	21.12696
482.0000      	20746.9    	21.61562
484.0000      	20661.2    	22.10747
486.0000      	20576.1    	22.39161
488.0000      	20491.8    	22.84329
490.0000      	20408.2    	23.40224
492.0000      	20325.2    	23.84573
494.0000      	20242.9    	24.31392
496.0000      	20161.3    	24.69184
498.0000      	20080.3    	25.06613
500.0000      	20000    	25.34586
502.0000      	19920.3    	25.47882
504.0000      	19841.3    	25.57809
506.0000      	19762.8    	25.51957
508.0000      	19685    	25.20452
510.0000      	19607.8    	24.86570
512.0000      	19531.2    	24.24404
514.0000      	19455.3    	23.58112
516.0000      	19379.8    	22.62745
518.0000      	19305    	21.74667
520.0000      	19230.8    	20.92621
522.0000      	19157.1    	19.89987
524.0000      	19084    	18.87463
526.0000      	19011.4    	18.24315
528.0000      	18939.4    	17.41023
530.0000      	18867.9    	16.86722
532.0000      	18797    	16.30955
534.0000      	18726.6    	15.99350
536.0000      	18656.7    	15.71644
538.0000      	18587.4    	15.47875
540.0000      	18518.5    	15.46630
542.0000      	18450.2    	15.38898
544.0000      	18382.4    	15.40234
546.0000      	18315    	15.41587
548.0000      	18248.2    	15.31307
550.0000      	18181.8    	15.08242
552.0000      	18115.9    	14.82222
554.0000      	18050.5    	14.42841
556.0000      	17985.6    	13.94813
558.0000      	17921.1    	13.56262
560.0000      	17857.1    	12.98113
562.0000      	17793.6    	12.50215
564.0000      	17730.5    	12.18733
566.0000      	17667.8    	11.87793
568.0000      	17605.6    	11.62115
570.0000      	17543.9    	11.64120
572.0000      	17482.5    	11.67124
574.0000      	17421.6    	11.93889
576.0000      	17361.1    	12.22669
578.0000      	17301    	12.75728
580.0000      	17241.4    	13.43584
582.0000      	17182.1    	14.11964
584.0000      	17123.3    	14.94531
586.0000      	17064.8    	15.87164
588.0000      	17006.8    	16.47804
590.0000      	16949.2    	17.33048
592.0000      	16891.9    	18.04340
594.0000      	16835    	18.34530
596.0000      	16778.5    	18.71135
598.0000      	16722.4    	19.01407
600.0000      	16666.7    	19.14800
602.0000      	16611.3    	19.21939
604.0000      	16556.3    	19.20012
606.0000      	16501.7    	19.12165
608.0000      	16447.4    	19.16680
610.0000      	16393.4    	19.26273
612.0000      	16339.9    	19.29184
614.0000      	16286.6    	19.28024
616.0000      	16233.8    	19.26360
618.0000      	16181.2    	19.23414
620.0000      	16129    	19.35208
622.0000      	16077.2    	19.33689
624.0000      	16025.6    	19.43363
626.0000      	15974.4    	19.50546
628.0000      	15923.6    	19.60074
630.0000      	15873    	19.58238
632.0000      	15822.8    	19.66006
634.0000      	15772.9    	19.80146
636.0000      	15723.3    	20.00607
638.0000      	15674    	20.15111
640.0000      	15625    	20.23332
642.0000      	15576.3    	20.33969
644.0000      	15528    	20.70350
646.0000      	15479.9    	21.10111
648.0000      	15432.1    	21.28674
650.0000      	15384.6    	21.75713
652.0000      	15337.4    	22.09202
654.0000      	15290.5    	22.43754
656.0000      	15243.9    	22.98951
658.0000      	15197.6    	23.39383
660.0000      	15151.5    	23.76304
662.0000      	15105.7    	24.13725
664.0000      	15060.2    	24.36294
666.0000      	15015    	24.77497
668.0000      	14970.1    	24.98690
670.0000      	14925.4    	25.04135
672.0000      	14881    	24.98526
674.0000      	14836.8    	24.97525
676.0000      	14792.9    	25.13124
678.0000      	14749.3    	25.01615
680.0000      	14705.9    	24.81164
682.0000      	14662.8    	24.57483
684.0000      	14619.9    	24.33965
686.0000      	14577.3    	24.16744
688.0000      	14534.9    	24.00289
690.0000      	14492.8    	23.90849
692.0000      	14450.9    	23.64298
694.0000      	14409.2    	23.34657
696.0000      	14367.8    	23.24439
698.0000      	14326.6    	23.15488
700.0000      	14285.7    	22.89230
702.0000      	14245    	22.43314
704.0000      	14204.5    	22.03745
706.0000      	14164.3    	21.73855
708.0000      	14124.3    	21.62318
710.0000      	14084.5    	21.44255
712.0000      	14044.9    	21.30160
714.0000      	14005.6    	21.28042
716.0000      	13966.5    	21.32730
718.0000      	13927.6    	21.56691
720.0000      	13888.9    	21.95077
722.0000      	13850.4    	22.50601
724.0000      	13812.2    	22.70635
726.0000      	13774.1    	23.40265
728.0000      	13736.3    	23.72717
730.0000      	13698.6    	24.48922
732.0000      	13661.2    	25.22121
734.0000      	13624    	26.17250
736.0000      	13587    	27.19798
738.0000      	13550.1    	28.20334
740.0000      	13513.5    	29.51915
742.0000      	13477.1    	30.89049
744.0000      	13440.9    	32.68364
746.0000      	13404.8    	34.81632
748.0000      	13369    	36.89293
750.0000      	13333.3    	39.67510
752.0000      	13297.9    	41.87270
754.0000      	13262.6    	45.47376
756.0000      	13227.5    	47.89571
758.0000      	13192.6    	51.26871
760.0000      	13157.9    	54.92472
762.0000      	13123.4    	57.40648
764.0000      	13089    	60.06536
766.0000      	13054.8    	62.03727
768.0000      	13020.8    	63.80305
770.0000      	12987    	65.29556
772.0000      	12953.4    	66.90389
774.0000      	12919.9    	68.12879
776.0000      	12886.6    	69.10829
778.0000      	12853.5    	69.51936
780.0000      	12820.5    	70.30133
782.0000      	12787.7    	70.58833
784.0000      	12755.1    	70.88484
786.0000      	12722.6    	71.75446
788.0000      	12690.4    	71.84174
790.0000      	12658.2    	72.51299
792.0000      	12626.3    	72.42027
794.0000      	12594.5    	72.55963
796.0000      	12562.8    	73.16285
798.0000      	12531.3    	73.39501
800.0000      	12500    	73.20533

File: 63_w_2.txt
Unit Serial No : 240-IM0P2424-EU
Integration Time : 10 ms
Time Average: 10
Binning Average: 2
FFT Smoothing: 0%
Project Name : RPS900-R
Sample Name :  SM240-IMOP2424-EU
Measurement No : 1
Measurement Time : 06/03/2019   14:59:56

Wavelength(nm)	Wavenumber(1/cm)	Transmittance(%)
300.0000      	33333.3    	11.15329
302.0000      	33112.6    	10.14501
304.0000      	32894.7    	9.98397
306.0000      	32679.7    	10.17155
308.0000      	32467.5    	9.33745
310.0000      	32258.1    	9.13622
312.0000      	32051.3    	8.78726
314.0000      	31847.1    	8.57956
316.0000      	31645.6    	8.19871
318.0000      	31446.5    	8.25286
320.0000      	31250    	7.15067
322.0000      	31055.9    	7.67369
324.0000      	30864.2    	7.39200
326.0000      	30674.8    	6.76285
328.0000      	30487.8    	6.94778
330.0000      	30303    	6.76601
332.0000      	30120.5    	6.56460
334.0000      	29940.1    	6.74500
336.0000      	29761.9    	6.55392
338.0000      	29585.8    	6.40743
340.0000      	29411.8    	6.33638
342.0000      	29239.8    	6.41810
344.0000      	29069.8    	6.04131
346.0000      	28901.7    	5.82758
348.0000      	28735.6    	6.19855
350.0000      	28571.4    	6.52276
352.0000      	28409.1    	6.33518
354.0000      	28248.6    	6.32889
356.0000      	28089.9    	6.38218
358.0000      	27933    	6.43982
360.0000      	27777.8    	6.63758
362.0000      	27624.3    	6.72624
364.0000      	27472.5    	6.85972
366.0000      	27322.4    	6.78614
368.0000      	27173.9    	6.74591
370.0000      	27027    	7.08767
372.0000      	26881.7    	7.14624
374.0000      	26738    	7.21724
376.0000      	26595.7    	7.61511
378.0000      	26455    	7.69464
380.0000      	26315.8    	7.84320
382.0000      	26178    	8.15879
384.0000      	26041.7    	8.38787
386.0000      	25906.7    	8.60513
388.0000      	25773.2    	8.76534
390.0000      	25641    	9.32203
392.0000      	25510.2    	9.41623
394.0000      	25380.7    	9.82149
396.0000      	25252.5    	10.13579
398.0000      	25125.6    	10.65848
400.0000      	25000    	11.07883
402.0000      	24875.6    	11.26160
404.0000      	24752.5    	11.61626
406.0000      	24630.5    	12.03231
408.0000      	24509.8    	12.57530
410.0000      	24390.2    	13.08389
412.0000      	24271.8    	13.40068
414.0000      	24154.6    	13.85718
416.0000      	24038.5    	13.92381
418.0000      	23923.4    	14.05914
420.0000      	23809.5    	14.38061
422.0000      	23696.7    	14.58262
424.0000      	23584.9    	14.82903
426.0000      	23474.2    	14.87885
428.0000      	23364.5    	15.05096
430.0000      	23255.8    	15.11622
432.0000      	23148.1    	15.36596
434.0000      	23041.5    	15.63037
436.0000      	22935.8    	15.91670
438.0000      	22831.1    	16.01431
440.0000      	22727.3    	16.27873
442.0000      	22624.4    	16.32599
444.0000      	22522.5    	16.53102
446.0000      	22421.5    	16.68077
448.0000      	22321.4    	16.63395
450.0000      	22222.2    	16.81187
452.0000      	22123.9    	16.95229
454.0000      	22026.4    	17.17033
456.0000      	21929.8    	17.33857
458.0000      	21834.1    	17.55354
460.0000      	21739.1    	17.86673
462.0000      	21645    	17.96111
464.0000      	21551.7    	18.14163
466.0000      	21459.2    	18.58116
468.0000      	21367.5    	18.87631
470.0000      	21276.6    	19.15075
472.0000      	21186.4    	19.43648
474.0000      	21097    	20.01204
476.0000      	21008.4    	20.41623
478.0000      	20920.5    	20.70998
480.0000      	20833.3    	21.10033
482.0000      	20746.9    	21.64583
484.0000      	20661.2    	22.14494
486.0000      	20576.1    	22.51445
488.0000      	20491.8    	22.93879
490.0000      	20408.2    	23.46029
492.0000      	20325.2    	23.86683
494.0000      	20242.9    	24.38038
496.0000      	20161.3    	24.75537
498.0000      	20080.3    	25.08518
500.0000      	20000    	25.38521
502.0000      	19920.3    	25.54622
504.0000      	19841.3    	25.58184
506.0000      	19762.8    	25.58614
508.0000      	19685    	25.21348
510.0000      	19607.8    	24.76947
512.0000      	19531.2    	24.12563
514.0000      	19455.3    	23.54882
516.0000      	19379.8    	22.73969
518.0000      	19305    	21.73429
520.0000      	19230.8    	20.99593
522.0000      	19157.1    	19.90122
524.0000      	19084    	18.94334
526.0000      	19011.4    	18.25119
528.0000      	18939.4    	17.49720
530.0000      	18867.9    	16.88414
532.0000      	18797    	16.38740
534.0000      	18726.6    	16.10861
536.0000      	18656.7    	15.78964
538.0000      	18587.4    	15.51167
540.0000      	18518.5    	15.50724
542.0000      	18450.2    	15.45197
544.0000      	18382.4    	15.40466
546.0000      	18315    	15.34602
548.0000      	18248.2    	15.34089
550.0000      	18181.8    	15.09916
552.0000      	18115.9    	14.90925
554.0000      	18050.5    	14.48099
556.0000      	17985.6    	13.93355
558.0000      	17921.1    	13.55606
560.0000      	17857.1    	13.00283
562.0000      	17793.6    	12.48964
564.0000      	17730.5    	12.21179
566.0000      	17667.8    	11.83963
568.0000      	17605.6    	11.66414
570.0000      	17543.9    	11.68063
572.0000      	17482.5    	11.71226
574.0000      	17421.6    	11.96549
576.0000      	17361.1    	12.26265
578.0000      	17301    	12.81579
580.0000      	17241.4    	13.48625
582.0000      	17182.1    	14.18090
584.0000      	17123.3    	14.96385
586.0000      	17064.8    	15.84386
588.0000      	17006.8    	16.53349
590.0000      	16949.2    	17.29224
592.0000      	16891.9    	18.01666
594.0000      	16835    	18.43747
596.0000      	16778.5    	18.76741
598.0000      	16722.4    	19.07576
600.0000      	16666.7    	19.10974
602.0000      	16611.3    	19.22499
604.0000      	16556.3    	19.22230
606.0000      	16501.7    	19.20528
608.0000      	16447.4    	19.13872
610.0000      	16393.4    	19.26153
612.0000      	16339.9    	19.32899
614.0000      	16286.6    	19.31127
616.0000      	16233.8    	19.38337
618.0000      	16181.2    	19.29510
620.0000      	16129    	19.36671
622.0000      	16077.2    	19.38498
624.0000      	16025.6    	19.46832
626.0000      	15974.4    	19.51834
628.0000      	15923.6    	19.55665
630.0000      	15873    	19.68596
632.0000      	15822.8    	19.79219
634.0000      	15772.9    	19.83297
636.0000      	15723.3    	19.91882
638.0000      	15674    	20.01792
640.0000      	15625    	20.29778
642.0000      	15576.3    	20.52323
644.0000      	15528    	20.75966
646.0000      	15479.9    	21.15894
648.0000      	15432.1    	21.38166
650.0000      	15384.6    	21.72164
652.0000      	15337.4    	22.12337
654.0000      	15290.5    	22.51638
656.0000      	15243.9    	22.92153
658.0000      	15197.6    	23.20876
660.0000      	15151.5    	23.71123
662.0000      	15105.7    	24.14692
664.0000      	15060.2    	24.44750
666.0000      	15015    	24.82443
668.0000      	14970.1    	24.95922
670.0000      	14925.4    	25.13205
672.0000      	14881    	25.22370
674.0000      	14836.8    	25.12183
676.0000      	14792.9    	25.05859
678.0000      	14749.3    	25.03234
680.0000      	14705.9    	24.89663
682.0000      	14662.8    	24.70367
684.0000      	14619.9    	24.46311
686.0000      	14577.3    	24.25067
688.0000      	14534.9    	23.99587
690.0000      	14492.8    	23.61014
692.0000      	14450.9    	23.49282
694.0000      	14409.2    	23.51166
696.0000      	14367.8    	23.22044
698.0000      	14326.6    	23.05946
700.0000      	14285.7    	22.61284
702.0000      	14245    	22.53461
704.0000      	14204.5    	22.24888
706.0000      	14164.3    	21.95098
708.0000      	14124.3    	21.72781
710.0000      	14084.5    	21.43599
712.0000      	14044.9    	21.32341
714.0000      	14005.6    	21.27598
716.0000      	13966.5    	21.56927
718.0000      	13927.6    	21.84025
720.0000      	13888.9    	22.05264
722.0000      	13850.4    	22.42476
724.0000      	13812.2    	22.82258
726.0000      	13774.1    	23.70965
728.0000      	13736.3    	24.09251
730.0000      	13698.6    	24.61529
732.0000      	13661.2    	25.07719
734.0000      	13624    	26.08218
736.0000      	13587    	27.25552
738.0000      	13550.1    	28.16290
740.0000      	13513.5    	29.32441
742.0000      	13477.1    	30.90603
744.0000      	13440.9    	33.07524
746.0000      	13404.8    	35.12430
748.0000      	13369    	36.89837
750.0000      	13333.3    	39.64528
752.0000      	13297.9    	41.56000
754.0000      	13262.6    	44.99667
756.0000      	13227.5    	47.48895
758.0000      	13192.6    	50.98781
760.0000      	13157.9    	54.61615
762.0000      	13123.4    	56.96538
764.0000      	13089    	59.79749
766.0000      	13054.8    	61.85768
768.0000      	13020.8    	63.66624
770.0000      	12987    	64.96810
772.0000      	12953.4    	66.93073
774.0000      	12919.9    	67.84007
776.0000      	12886.6    	68.80168
778.0000      	12853.5    	70.10136
780.0000      	12820.5    	70.11847
782.0000      	12787.7    	70.16140
784.0000      	12755.1    	71.23643
786.0000      	12722.6    	71.99649
788.0000      	12690.4    	71.82650
790.0000      	12658.2    	72.63441
792.0000      	12626.3    	72.11758
794.0000      	12594.5    	72.01811
796.0000      	12562.8    	72.96991
798.0000      	12531.3    	72.91231
800.0000      	12500    	73.21370