Folder: Ophiomastix_wendtii_orientation/data/Reflectance_measurements/Reflectance_2019_material/6_white (part 2)

File: 6_w_3 .txt
Unit Serial No : 240-IM0P2424-EU
Integration Time : 10 ms
Time Average: 10
Binning Average: 2
FFT Smoothing: 0%
Project Name : RPS900-R
Sample Name :  SM240-IMOP2424-EU
Measurement No : 1
Measurement Time : 06/03/2019   16:44:42

Wavelength(nm)	Wavenumber(1/cm)	Transmittance(%)
300.0000      	33333.3    	16.46424
302.0000      	33112.6    	16.62942
304.0000      	32894.7    	15.33973
306.0000      	32679.7    	14.38772
308.0000      	32467.5    	13.33211
310.0000      	32258.1    	13.88559
312.0000      	32051.3    	12.79186
314.0000      	31847.1    	12.67216
316.0000      	31645.6    	11.85525
318.0000      	31446.5    	11.61662
320.0000      	31250    	10.63027
322.0000      	31055.9    	10.40102
324.0000      	30864.2    	10.38885
326.0000      	30674.8    	9.74446
328.0000      	30487.8    	9.68159
330.0000      	30303    	9.76718
332.0000      	30120.5    	9.79628
334.0000      	29940.1    	9.03850
336.0000      	29761.9    	9.53309
338.0000      	29585.8    	9.80979
340.0000      	29411.8    	9.84555
342.0000      	29239.8    	9.83648
344.0000      	29069.8    	10.16692
346.0000      	28901.7    	10.30231
348.0000      	28735.6    	10.36259
350.0000      	28571.4    	10.67784
352.0000      	28409.1    	10.95936
354.0000      	28248.6    	11.66190
356.0000      	28089.9    	12.56183
358.0000      	27933    	13.71295
360.0000      	27777.8    	14.44289
362.0000      	27624.3    	14.71218
364.0000      	27472.5    	15.33004
366.0000      	27322.4    	16.36486
368.0000      	27173.9    	16.91154
370.0000      	27027    	18.07694
372.0000      	26881.7    	18.57565
374.0000      	26738    	19.26594
376.0000      	26595.7    	20.38796
378.0000      	26455    	21.65637
380.0000      	26315.8    	22.93703
382.0000      	26178    	24.00423
384.0000      	26041.7    	25.64433
386.0000      	25906.7    	26.78510
388.0000      	25773.2    	28.14036
390.0000      	25641    	29.23907
392.0000      	25510.2    	30.34991
394.0000      	25380.7    	31.65541
396.0000      	25252.5    	33.12562
398.0000      	25125.6    	35.08057
400.0000      	25000    	37.62317
402.0000      	24875.6    	39.01785
404.0000      	24752.5    	41.84760
406.0000      	24630.5    	45.48159
408.0000      	24509.8    	49.28784
410.0000      	24390.2    	53.24072
412.0000      	24271.8    	56.33438
414.0000      	24154.6    	59.95020
416.0000      	24038.5    	63.25471
418.0000      	23923.4    	65.34428
420.0000      	23809.5    	66.56529
422.0000      	23696.7    	68.06561
424.0000      	23584.9    	69.02659
426.0000      	23474.2    	70.11845
428.0000      	23364.5    	71.36044
430.0000      	23255.8    	72.24163
432.0000      	23148.1    	73.95409
434.0000      	23041.5    	75.24351
436.0000      	22935.8    	75.94870
438.0000      	22831.1    	76.35480
440.0000      	22727.3    	77.20190
442.0000      	22624.4    	76.95848
444.0000      	22522.5    	76.56421
446.0000      	22421.5    	76.07307
448.0000      	22321.4    	75.03776
450.0000      	22222.2    	74.01743
452.0000      	22123.9    	73.83557
454.0000      	22026.4    	73.58215
456.0000      	21929.8    	73.28766
458.0000      	21834.1    	73.12099
460.0000      	21739.1    	72.77297
462.0000      	21645    	72.89876
464.0000      	21551.7    	72.76667
466.0000      	21459.2    	72.24274
468.0000      	21367.5    	72.26012
470.0000      	21276.6    	72.67043
472.0000      	21186.4    	72.69869
474.0000      	21097    	72.75985
476.0000      	21008.4    	73.02526
478.0000      	20920.5    	73.10049
480.0000      	20833.3    	72.89053
482.0000      	20746.9    	72.62840
484.0000      	20661.2    	72.83456
486.0000      	20576.1    	72.74483
488.0000      	20491.8    	73.06241
490.0000      	20408.2    	72.94173
492.0000      	20325.2    	72.96004
494.0000      	20242.9    	73.29044
496.0000      	20161.3    	73.44412
498.0000      	20080.3    	73.45731
500.0000      	20000    	73.31243
502.0000      	19920.3    	73.35327
504.0000      	19841.3    	73.21136
506.0000      	19762.8    	73.20057
508.0000      	19685    	72.88029
510.0000      	19607.8    	72.34408
512.0000      	19531.2    	71.91102
514.0000      	19455.3    	71.60322
516.0000      	19379.8    	70.98635
518.0000      	19305    	70.28043
520.0000      	19230.8    	69.77296
522.0000      	19157.1    	69.10165
524.0000      	19084    	68.49651
526.0000      	19011.4    	68.02549
528.0000      	18939.4    	67.36504
530.0000      	18867.9    	66.95742
532.0000      	18797    	66.73700
534.0000      	18726.6    	66.43929
536.0000      	18656.7    	66.31045
538.0000      	18587.4    	65.92037
540.0000      	18518.5    	65.86526
542.0000      	18450.2    	65.83115
544.0000      	18382.4    	65.70543
546.0000      	18315    	65.60339
548.0000      	18248.2    	65.33040
550.0000      	18181.8    	64.95975
552.0000      	18115.9    	64.59919
554.0000      	18050.5    	64.03101
556.0000      	17985.6    	63.31237
558.0000      	17921.1    	62.71251
560.0000      	17857.1    	61.89500
562.0000      	17793.6    	60.93539
564.0000      	17730.5    	60.39338
566.0000      	17667.8    	59.72923
568.0000      	17605.6    	59.02863
570.0000      	17543.9    	58.83883
572.0000      	17482.5    	58.64276
574.0000      	17421.6    	58.77172
576.0000      	17361.1    	59.30906
578.0000      	17301    	60.20662
580.0000      	17241.4    	61.64875
582.0000      	17182.1    	62.66391
584.0000      	17123.3    	63.88378
586.0000      	17064.8    	65.00558
588.0000      	17006.8    	65.88432
590.0000      	16949.2    	66.66072
592.0000      	16891.9    	67.29377
594.0000      	16835    	67.66135
596.0000      	16778.5    	68.07972
598.0000      	16722.4    	68.23804
600.0000      	16666.7    	68.47044
602.0000      	16611.3    	68.64104
604.0000      	16556.3    	68.58855
606.0000      	16501.7    	68.61153
608.0000      	16447.4    	68.71957
610.0000      	16393.4    	68.76204
612.0000      	16339.9    	68.72259
614.0000      	16286.6    	68.62958
616.0000      	16233.8    	68.49675
618.0000      	16181.2    	68.47156
620.0000      	16129    	68.35782
622.0000      	16077.2    	68.26978
624.0000      	16025.6    	68.59370
626.0000      	15974.4    	68.58068
628.0000      	15923.6    	68.75149
630.0000      	15873    	68.85519
632.0000      	15822.8    	69.10844
634.0000      	15772.9    	69.58137
636.0000      	15723.3    	69.86739
638.0000      	15674    	70.40430
640.0000      	15625    	70.90495
642.0000      	15576.3    	71.40657
644.0000      	15528    	72.10925
646.0000      	15479.9    	72.96099
648.0000      	15432.1    	73.47502
650.0000      	15384.6    	74.19456
652.0000      	15337.4    	74.97324
654.0000      	15290.5    	75.80733
656.0000      	15243.9    	76.71116
658.0000      	15197.6    	77.30910
660.0000      	15151.5    	77.82553
662.0000      	15105.7    	78.50431
664.0000      	15060.2    	78.62128
666.0000      	15015    	78.96703
668.0000      	14970.1    	79.18705
670.0000      	14925.4    	79.31171
672.0000      	14881    	79.67390
674.0000      	14836.8    	79.69867
676.0000      	14792.9    	79.12576
678.0000      	14749.3    	78.90919
680.0000      	14705.9    	78.64227
682.0000      	14662.8    	78.48174
684.0000      	14619.9    	78.08743
686.0000      	14577.3    	77.64316
688.0000      	14534.9    	77.50072
690.0000      	14492.8    	77.30831
692.0000      	14450.9    	77.40285
694.0000      	14409.2    	77.68949
696.0000      	14367.8    	77.68210
698.0000      	14326.6    	78.00188
700.0000      	14285.7    	78.03588
702.0000      	14245    	78.07082
704.0000      	14204.5    	77.87370
706.0000      	14164.3    	78.13796
708.0000      	14124.3    	78.33678
710.0000      	14084.5    	77.94649
712.0000      	14044.9    	77.90842
714.0000      	14005.6    	77.85415
716.0000      	13966.5    	77.89149
718.0000      	13927.6    	78.10164
720.0000      	13888.9    	78.04395
722.0000      	13850.4    	78.38894
724.0000      	13812.2    	78.51347
726.0000      	13774.1    	78.64420
728.0000      	13736.3    	78.74729
730.0000      	13698.6    	78.71703
732.0000      	13661.2    	78.72823
734.0000      	13624    	79.08411
736.0000      	13587    	79.46970
738.0000      	13550.1    	80.11599
740.0000      	13513.5    	80.59900
742.0000      	13477.1    	80.60510
744.0000      	13440.9    	80.92743
746.0000      	13404.8    	81.43800
748.0000      	13369    	81.98034
750.0000      	13333.3    	82.80936
752.0000      	13297.9    	83.36942
754.0000      	13262.6    	83.84578
756.0000      	13227.5    	84.09074
758.0000      	13192.6    	84.12193
760.0000      	13157.9    	84.21657
762.0000      	13123.4    	84.54747
764.0000      	13089    	84.27521
766.0000      	13054.8    	84.37992
768.0000      	13020.8    	84.60698
770.0000      	12987    	85.06191
772.0000      	12953.4    	85.30147
774.0000      	12919.9    	85.36272
776.0000      	12886.6    	85.72330
778.0000      	12853.5    	85.29344
780.0000      	12820.5    	85.56268
782.0000      	12787.7    	85.60603
784.0000      	12755.1    	85.13925
786.0000      	12722.6    	85.14016
788.0000      	12690.4    	85.41672
790.0000      	12658.2    	85.00404
792.0000      	12626.3    	84.97363
794.0000      	12594.5    	85.54129
796.0000      	12562.8    	85.81773
798.0000      	12531.3    	85.90208
800.0000      	12500    	85.27032