Folder: Ophiomastix_wendtii_orientation/data/Reflectance_measurements/Reflectance_2019_material/75 (part 2)

File: 75_3.txt
Unit Serial No : 240-IM0P2424-EU
Integration Time : 10 ms
Time Average: 10
Binning Average: 2
FFT Smoothing: 0%
Project Name : RPS900-R
Sample Name :  SM240-IMOP2424-EU
Measurement No : 1
Measurement Time : 06/03/2019   16:46:04

Wavelength(nm)	Wavenumber(1/cm)	Transmittance(%)
300.0000      	33333.3    	8.79819
302.0000      	33112.6    	9.17567
304.0000      	32894.7    	7.69383
306.0000      	32679.7    	7.71237
308.0000      	32467.5    	7.12644
310.0000      	32258.1    	7.05657
312.0000      	32051.3    	7.61317
314.0000      	31847.1    	6.70730
316.0000      	31645.6    	7.13048
318.0000      	31446.5    	6.49236
320.0000      	31250    	6.54108
322.0000      	31055.9    	6.49187
324.0000      	30864.2    	6.32572
326.0000      	30674.8    	5.79761
328.0000      	30487.8    	5.65140
330.0000      	30303    	5.46747
332.0000      	30120.5    	5.50188
334.0000      	29940.1    	5.27962
336.0000      	29761.9    	5.53694
338.0000      	29585.8    	5.35592
340.0000      	29411.8    	5.10341
342.0000      	29239.8    	5.25698
344.0000      	29069.8    	5.30563
346.0000      	28901.7    	5.43704
348.0000      	28735.6    	5.21872
350.0000      	28571.4    	4.99265
352.0000      	28409.1    	5.08651
354.0000      	28248.6    	5.00190
356.0000      	28089.9    	4.99929
358.0000      	27933    	4.90145
360.0000      	27777.8    	5.04224
362.0000      	27624.3    	5.29418
364.0000      	27472.5    	5.20857
366.0000      	27322.4    	5.42714
368.0000      	27173.9    	5.43927
370.0000      	27027    	5.20368
372.0000      	26881.7    	5.31186
374.0000      	26738    	5.33353
376.0000      	26595.7    	5.30283
378.0000      	26455    	5.62066
380.0000      	26315.8    	5.84589
382.0000      	26178    	5.70182
384.0000      	26041.7    	5.97528
386.0000      	25906.7    	6.02249
388.0000      	25773.2    	6.11338
390.0000      	25641    	6.41491
392.0000      	25510.2    	6.74523
394.0000      	25380.7    	6.79630
396.0000      	25252.5    	6.98224
398.0000      	25125.6    	7.01757
400.0000      	25000    	7.30460
402.0000      	24875.6    	7.47913
404.0000      	24752.5    	7.67789
406.0000      	24630.5    	7.89179
408.0000      	24509.8    	8.12136
410.0000      	24390.2    	8.28663
412.0000      	24271.8    	8.43839
414.0000      	24154.6    	8.58729
416.0000      	24038.5    	8.68327
418.0000      	23923.4    	8.74975
420.0000      	23809.5    	8.72167
422.0000      	23696.7    	8.89351
424.0000      	23584.9    	9.07790
426.0000      	23474.2    	9.08279
428.0000      	23364.5    	9.23579
430.0000      	23255.8    	9.39866
432.0000      	23148.1    	9.58290
434.0000      	23041.5    	9.47437
436.0000      	22935.8    	9.57352
438.0000      	22831.1    	9.62272
440.0000      	22727.3    	9.80378
442.0000      	22624.4    	10.02529
444.0000      	22522.5    	10.08711
446.0000      	22421.5    	10.18822
448.0000      	22321.4    	10.30428
450.0000      	22222.2    	10.33305
452.0000      	22123.9    	10.44258
454.0000      	22026.4    	10.60460
456.0000      	21929.8    	10.68910
458.0000      	21834.1    	10.88085
460.0000      	21739.1    	10.90634
462.0000      	21645    	11.03433
464.0000      	21551.7    	11.18966
466.0000      	21459.2    	11.24896
468.0000      	21367.5    	11.48557
470.0000      	21276.6    	11.65624
472.0000      	21186.4    	11.93839
474.0000      	21097    	12.19034
476.0000      	21008.4    	12.45849
478.0000      	20920.5    	12.64040
480.0000      	20833.3    	12.97979
482.0000      	20746.9    	13.26377
484.0000      	20661.2    	13.52288
486.0000      	20576.1    	13.70350
488.0000      	20491.8    	14.01033
490.0000      	20408.2    	14.28082
492.0000      	20325.2    	14.46830
494.0000      	20242.9    	14.67751
496.0000      	20161.3    	14.92047
498.0000      	20080.3    	15.07870
500.0000      	20000    	15.16442
502.0000      	19920.3    	15.20183
504.0000      	19841.3    	15.33378
506.0000      	19762.8    	15.30261
508.0000      	19685    	15.08797
510.0000      	19607.8    	14.82773
512.0000      	19531.2    	14.55278
514.0000      	19455.3    	14.20437
516.0000      	19379.8    	13.66588
518.0000      	19305    	13.10361
520.0000      	19230.8    	12.70038
522.0000      	19157.1    	12.20045
524.0000      	19084    	11.66670
526.0000      	19011.4    	11.25377
528.0000      	18939.4    	10.84439
530.0000      	18867.9    	10.45320
532.0000      	18797    	10.19648
534.0000      	18726.6    	9.98954
536.0000      	18656.7    	9.80803
538.0000      	18587.4    	9.69449
540.0000      	18518.5    	9.64019
542.0000      	18450.2    	9.57858
544.0000      	18382.4    	9.60019
546.0000      	18315    	9.55524
548.0000      	18248.2    	9.43157
550.0000      	18181.8    	9.29163
552.0000      	18115.9    	9.18671
554.0000      	18050.5    	8.99928
556.0000      	17985.6    	8.68865
558.0000      	17921.1    	8.47921
560.0000      	17857.1    	8.17550
562.0000      	17793.6    	7.87222
564.0000      	17730.5    	7.70698
566.0000      	17667.8    	7.53939
568.0000      	17605.6    	7.35104
570.0000      	17543.9    	7.34282
572.0000      	17482.5    	7.47365
574.0000      	17421.6    	7.57805
576.0000      	17361.1    	7.73890
578.0000      	17301    	8.03243
580.0000      	17241.4    	8.40350
582.0000      	17182.1    	8.71032
584.0000      	17123.3    	9.22618
586.0000      	17064.8    	9.69956
588.0000      	17006.8    	10.02034
590.0000      	16949.2    	10.48726
592.0000      	16891.9    	10.87395
594.0000      	16835    	11.04735
596.0000      	16778.5    	11.27569
598.0000      	16722.4    	11.40926
600.0000      	16666.7    	11.53877
602.0000      	16611.3    	11.60053
604.0000      	16556.3    	11.56534
606.0000      	16501.7    	11.64291
608.0000      	16447.4    	11.61448
610.0000      	16393.4    	11.56484
612.0000      	16339.9    	11.55400
614.0000      	16286.6    	11.57964
616.0000      	16233.8    	11.63371
618.0000      	16181.2    	11.63682
620.0000      	16129    	11.62034
622.0000      	16077.2    	11.62511
624.0000      	16025.6    	11.72264
626.0000      	15974.4    	11.75285
628.0000      	15923.6    	11.81705
630.0000      	15873    	11.83200
632.0000      	15822.8    	11.85896
634.0000      	15772.9    	11.90951
636.0000      	15723.3    	11.91656
638.0000      	15674    	11.92599
640.0000      	15625    	12.11564
642.0000      	15576.3    	12.20484
644.0000      	15528    	12.30294
646.0000      	15479.9    	12.47973
648.0000      	15432.1    	12.65142
650.0000      	15384.6    	12.76918
652.0000      	15337.4    	12.96428
654.0000      	15290.5    	13.12574
656.0000      	15243.9    	13.30113
658.0000      	15197.6    	13.46868
660.0000      	15151.5    	13.66144
662.0000      	15105.7    	13.81555
664.0000      	15060.2    	14.00389
666.0000      	15015    	14.05667
668.0000      	14970.1    	14.21062
670.0000      	14925.4    	14.33442
672.0000      	14881    	14.26077
674.0000      	14836.8    	14.29691
676.0000      	14792.9    	14.24826
678.0000      	14749.3    	14.21165
680.0000      	14705.9    	14.10330
682.0000      	14662.8    	13.96664
684.0000      	14619.9    	13.96934
686.0000      	14577.3    	13.92155
688.0000      	14534.9    	13.89195
690.0000      	14492.8    	13.65227
692.0000      	14450.9    	13.58282
694.0000      	14409.2    	13.58277
696.0000      	14367.8    	13.33214
698.0000      	14326.6    	13.16990
700.0000      	14285.7    	13.12262
702.0000      	14245    	12.93950
704.0000      	14204.5    	12.82991
706.0000      	14164.3    	12.79792
708.0000      	14124.3    	12.64705
710.0000      	14084.5    	12.46090
712.0000      	14044.9    	12.45960
714.0000      	14005.6    	12.39261
716.0000      	13966.5    	12.31464
718.0000      	13927.6    	12.47808
720.0000      	13888.9    	12.78656
722.0000      	13850.4    	13.11280
724.0000      	13812.2    	13.31296
726.0000      	13774.1    	13.39123
728.0000      	13736.3    	13.79226
730.0000      	13698.6    	13.98819
732.0000      	13661.2    	14.35752
734.0000      	13624    	14.74724
736.0000      	13587    	15.15759
738.0000      	13550.1    	15.66302
740.0000      	13513.5    	16.48817
742.0000      	13477.1    	17.09887
744.0000      	13440.9    	17.70786
746.0000      	13404.8    	18.99626
748.0000      	13369    	19.88642
750.0000      	13333.3    	21.21717
752.0000      	13297.9    	22.37735
754.0000      	13262.6    	23.72184
756.0000      	13227.5    	24.81476
758.0000      	13192.6    	26.49538
760.0000      	13157.9    	28.01890
762.0000      	13123.4    	29.20555
764.0000      	13089    	30.10650
766.0000      	13054.8    	30.82393
768.0000      	13020.8    	31.48198
770.0000      	12987    	32.25746
772.0000      	12953.4    	33.33416
774.0000      	12919.9    	33.85594
776.0000      	12886.6    	34.56308
778.0000      	12853.5    	34.51889
780.0000      	12820.5    	34.68284
782.0000      	12787.7    	35.07479
784.0000      	12755.1    	35.33054
786.0000      	12722.6    	35.19431
788.0000      	12690.4    	35.76652
790.0000      	12658.2    	35.57981
792.0000      	12626.3    	35.48136
794.0000      	12594.5    	36.05368
796.0000      	12562.8    	36.12669
798.0000      	12531.3    	35.61264
800.0000      	12500    	35.70863