Folder: Ophiomastix_wendtii_orientation/data/Reflectance_measurements/Reflectance_2019_material/75_white

Note: README.md
# Ophiomastix_wendtii_orientation

We have measured the visual performance of the brittle star *Ophiomastix wendtii* using behavioural experiments. The peer reviewed publication is available at https://doi.org/10.1242/jeb.236653.


### Prerequisites

R 3.6.3 was used for this work, and a similar version is required. The Rstudio  1.2.5 IDE was used.


## Code Authors

* **Lauren Sumner-Rooney** - *Initial work* - []()

* **John D. Kirwan**       - *Initial work* - [](https://github.com/JohnKirwan)


## Code Acknowledgments

* Thanks to James J. Foster for plotting and modelling code.

File: 75_w_1.txt
Unit Serial No : 240-IM0P2424-EU
Integration Time : 10 ms
Time Average: 10
Binning Average: 2
FFT Smoothing: 0%
Project Name : RPS900-R
Sample Name :  SM240-IMOP2424-EU
Measurement No : 1
Measurement Time : 06/03/2019   16:46:30

Wavelength(nm)	Wavenumber(1/cm)	Transmittance(%)
300.0000      	33333.3    	8.70597
302.0000      	33112.6    	8.98516
304.0000      	32894.7    	8.13513
306.0000      	32679.7    	8.24451
308.0000      	32467.5    	8.41805
310.0000      	32258.1    	6.74337
312.0000      	32051.3    	7.72841
314.0000      	31847.1    	7.33773
316.0000      	31645.6    	6.75637
318.0000      	31446.5    	7.27121
320.0000      	31250    	6.28821
322.0000      	31055.9    	6.66049
324.0000      	30864.2    	6.31619
326.0000      	30674.8    	5.89753
328.0000      	30487.8    	5.77427
330.0000      	30303    	5.94388
332.0000      	30120.5    	6.07702
334.0000      	29940.1    	6.04119
336.0000      	29761.9    	5.49888
338.0000      	29585.8    	5.72781
340.0000      	29411.8    	5.74522
342.0000      	29239.8    	5.71586
344.0000      	29069.8    	5.38824
346.0000      	28901.7    	5.41635
348.0000      	28735.6    	5.03487
350.0000      	28571.4    	5.33557
352.0000      	28409.1    	5.11954
354.0000      	28248.6    	5.06836
356.0000      	28089.9    	5.28526
358.0000      	27933    	5.15680
360.0000      	27777.8    	5.19996
362.0000      	27624.3    	5.40924
364.0000      	27472.5    	5.35026
366.0000      	27322.4    	5.40755
368.0000      	27173.9    	5.44484
370.0000      	27027    	5.65794
372.0000      	26881.7    	5.66226
374.0000      	26738    	5.73393
376.0000      	26595.7    	5.76643
378.0000      	26455    	5.72823
380.0000      	26315.8    	6.26115
382.0000      	26178    	6.05564
384.0000      	26041.7    	6.13413
386.0000      	25906.7    	6.23067
388.0000      	25773.2    	6.69358
390.0000      	25641    	6.78944
392.0000      	25510.2    	6.85005
394.0000      	25380.7    	7.10818
396.0000      	25252.5    	7.26197
398.0000      	25125.6    	7.50622
400.0000      	25000    	7.66142
402.0000      	24875.6    	7.75905
404.0000      	24752.5    	7.92841
406.0000      	24630.5    	8.35861
408.0000      	24509.8    	8.61470
410.0000      	24390.2    	8.92351
412.0000      	24271.8    	9.17333
414.0000      	24154.6    	9.24572
416.0000      	24038.5    	9.29518
418.0000      	23923.4    	9.35731
420.0000      	23809.5    	9.44335
422.0000      	23696.7    	9.65879
424.0000      	23584.9    	9.75738
426.0000      	23474.2    	9.87247
428.0000      	23364.5    	9.99272
430.0000      	23255.8    	10.05168
432.0000      	23148.1    	10.03822
434.0000      	23041.5    	10.23132
436.0000      	22935.8    	10.49017
438.0000      	22831.1    	10.61069
440.0000      	22727.3    	10.69356
442.0000      	22624.4    	10.63547
444.0000      	22522.5    	11.02492
446.0000      	22421.5    	11.14528
448.0000      	22321.4    	10.95624
450.0000      	22222.2    	11.10127
452.0000      	22123.9    	11.28532
454.0000      	22026.4    	11.46540
456.0000      	21929.8    	11.58226
458.0000      	21834.1    	11.73561
460.0000      	21739.1    	11.88123
462.0000      	21645    	12.01410
464.0000      	21551.7    	12.09850
466.0000      	21459.2    	12.22256
468.0000      	21367.5    	12.59534
470.0000      	21276.6    	12.81665
472.0000      	21186.4    	13.05782
474.0000      	21097    	13.23892
476.0000      	21008.4    	13.60309
478.0000      	20920.5    	13.89420
480.0000      	20833.3    	14.24924
482.0000      	20746.9    	14.43968
484.0000      	20661.2    	14.83930
486.0000      	20576.1    	15.05362
488.0000      	20491.8    	15.37168
490.0000      	20408.2    	15.68326
492.0000      	20325.2    	15.96195
494.0000      	20242.9    	16.23015
496.0000      	20161.3    	16.46393
498.0000      	20080.3    	16.64326
500.0000      	20000    	16.77198
502.0000      	19920.3    	16.91273
504.0000      	19841.3    	16.97165
506.0000      	19762.8    	16.88519
508.0000      	19685    	16.74051
510.0000      	19607.8    	16.39837
512.0000      	19531.2    	16.01690
514.0000      	19455.3    	15.70658
516.0000      	19379.8    	15.08875
518.0000      	19305    	14.43253
520.0000      	19230.8    	13.95825
522.0000      	19157.1    	13.36383
524.0000      	19084    	12.78822
526.0000      	19011.4    	12.34003
528.0000      	18939.4    	11.80853
530.0000      	18867.9    	11.32245
532.0000      	18797    	10.99481
534.0000      	18726.6    	10.82084
536.0000      	18656.7    	10.63804
538.0000      	18587.4    	10.56152
540.0000      	18518.5    	10.50157
542.0000      	18450.2    	10.40479
544.0000      	18382.4    	10.40598
546.0000      	18315    	10.37971
548.0000      	18248.2    	10.28500
550.0000      	18181.8    	10.20313
552.0000      	18115.9    	10.04359
554.0000      	18050.5    	9.80867
556.0000      	17985.6    	9.38966
558.0000      	17921.1    	9.06644
560.0000      	17857.1    	8.75862
562.0000      	17793.6    	8.45346
564.0000      	17730.5    	8.26943
566.0000      	17667.8    	8.08367
568.0000      	17605.6    	8.01258
570.0000      	17543.9    	7.96748
572.0000      	17482.5    	7.97940
574.0000      	17421.6    	8.14157
576.0000      	17361.1    	8.30334
578.0000      	17301    	8.61371
580.0000      	17241.4    	9.04450
582.0000      	17182.1    	9.43416
584.0000      	17123.3    	9.94921
586.0000      	17064.8    	10.56276
588.0000      	17006.8    	10.96699
590.0000      	16949.2    	11.42069
592.0000      	16891.9    	11.81382
594.0000      	16835    	12.10412
596.0000      	16778.5    	12.34898
598.0000      	16722.4    	12.51387
600.0000      	16666.7    	12.61641
602.0000      	16611.3    	12.68862
604.0000      	16556.3    	12.70060
606.0000      	16501.7    	12.79790
608.0000      	16447.4    	12.73603
610.0000      	16393.4    	12.79279
612.0000      	16339.9    	12.70289
614.0000      	16286.6    	12.73309
616.0000      	16233.8    	12.78365
618.0000      	16181.2    	12.81320
620.0000      	16129    	12.74866
622.0000      	16077.2    	12.76360
624.0000      	16025.6    	12.92398
626.0000      	15974.4    	12.94488
628.0000      	15923.6    	12.96614
630.0000      	15873    	13.02759
632.0000      	15822.8    	13.11060
634.0000      	15772.9    	13.18041
636.0000      	15723.3    	13.20528
638.0000      	15674    	13.30727
640.0000      	15625    	13.44149
642.0000      	15576.3    	13.48848
644.0000      	15528    	13.60934
646.0000      	15479.9    	13.86363
648.0000      	15432.1    	14.04970
650.0000      	15384.6    	14.15594
652.0000      	15337.4    	14.48166
654.0000      	15290.5    	14.69017
656.0000      	15243.9    	14.95530
658.0000      	15197.6    	15.15755
660.0000      	15151.5    	15.45139
662.0000      	15105.7    	15.77407
664.0000      	15060.2    	15.87956
666.0000      	15015    	16.03537
668.0000      	14970.1    	16.20367
670.0000      	14925.4    	16.34020
672.0000      	14881    	16.41321
674.0000      	14836.8    	16.32409
676.0000      	14792.9    	16.25040
678.0000      	14749.3    	16.19222
680.0000      	14705.9    	16.06376
682.0000      	14662.8    	16.11959
684.0000      	14619.9    	15.99315
686.0000      	14577.3    	15.71476
688.0000      	14534.9    	15.73043
690.0000      	14492.8    	15.46459
692.0000      	14450.9    	15.49469
694.0000      	14409.2    	15.45845
696.0000      	14367.8    	15.19211
698.0000      	14326.6    	15.08489
700.0000      	14285.7    	14.95741
702.0000      	14245    	14.74608
704.0000      	14204.5    	14.65729
706.0000      	14164.3    	14.40486
708.0000      	14124.3    	14.33224
710.0000      	14084.5    	14.26640
712.0000      	14044.9    	14.16069
714.0000      	14005.6    	14.09131
716.0000      	13966.5    	14.14170
718.0000      	13927.6    	14.37553
720.0000      	13888.9    	14.55359
722.0000      	13850.4    	14.73324
724.0000      	13812.2    	15.10711
726.0000      	13774.1    	15.42766
728.0000      	13736.3    	15.82863
730.0000      	13698.6    	15.95812
732.0000      	13661.2    	16.39200
734.0000      	13624    	16.94895
736.0000      	13587    	17.42838
738.0000      	13550.1    	18.10763
740.0000      	13513.5    	18.96528
742.0000      	13477.1    	19.62506
744.0000      	13440.9    	20.89168
746.0000      	13404.8    	22.25576
748.0000      	13369    	23.32619
750.0000      	13333.3    	25.22071
752.0000      	13297.9    	26.52046
754.0000      	13262.6    	28.33125
756.0000      	13227.5    	29.88475
758.0000      	13192.6    	31.88795
760.0000      	13157.9    	33.82924
762.0000      	13123.4    	35.35311
764.0000      	13089    	36.80912
766.0000      	13054.8    	37.71553
768.0000      	13020.8    	38.95382
770.0000      	12987    	39.90717
772.0000      	12953.4    	41.02132
774.0000      	12919.9    	41.37725
776.0000      	12886.6    	42.60123
778.0000      	12853.5    	42.80670
780.0000      	12820.5    	43.13090
782.0000      	12787.7    	43.41512
784.0000      	12755.1    	43.31701
786.0000      	12722.6    	43.71448
788.0000      	12690.4    	44.40794
790.0000      	12658.2    	44.27792
792.0000      	12626.3    	44.38762
794.0000      	12594.5    	45.18686
796.0000      	12562.8    	44.98109
798.0000      	12531.3    	45.12568
800.0000      	12500    	44.88719

File: 75_w_2.txt
Unit Serial No : 240-IM0P2424-EU
Integration Time : 10 ms
Time Average: 10
Binning Average: 2
FFT Smoothing: 0%
Project Name : RPS900-R
Sample Name :  SM240-IMOP2424-EU
Measurement No : 1
Measurement Time : 06/03/2019   16:46:42

Wavelength(nm)	Wavenumber(1/cm)	Transmittance(%)
300.0000      	33333.3    	10.07554
302.0000      	33112.6    	8.36051
304.0000      	32894.7    	7.77317
306.0000      	32679.7    	7.81243
308.0000      	32467.5    	7.96543
310.0000      	32258.1    	7.65101
312.0000      	32051.3    	7.22663
314.0000      	31847.1    	7.27622
316.0000      	31645.6    	7.61468
318.0000      	31446.5    	6.86671
320.0000      	31250    	6.11030
322.0000      	31055.9    	6.36582
324.0000      	30864.2    	6.42972
326.0000      	30674.8    	5.82595
328.0000      	30487.8    	6.11339
330.0000      	30303    	5.78485
332.0000      	30120.5    	6.12228
334.0000      	29940.1    	5.72241
336.0000      	29761.9    	5.55540
338.0000      	29585.8    	5.65496
340.0000      	29411.8    	5.45589
342.0000      	29239.8    	5.42770
344.0000      	29069.8    	5.18837
346.0000      	28901.7    	5.22246
348.0000      	28735.6    	5.17156
350.0000      	28571.4    	5.35525
352.0000      	28409.1    	5.27394
354.0000      	28248.6    	5.39991
356.0000      	28089.9    	5.34118
358.0000      	27933    	5.07979
360.0000      	27777.8    	5.43611
362.0000      	27624.3    	5.55569
364.0000      	27472.5    	5.46295
366.0000      	27322.4    	5.69956
368.0000      	27173.9    	5.35746
370.0000      	27027    	5.60396
372.0000      	26881.7    	5.88185
374.0000      	26738    	5.77620
376.0000      	26595.7    	5.89777
378.0000      	26455    	5.92724
380.0000      	26315.8    	5.98213
382.0000      	26178    	6.24073
384.0000      	26041.7    	6.43516
386.0000      	25906.7    	6.32137
388.0000      	25773.2    	6.74176
390.0000      	25641    	6.83214
392.0000      	25510.2    	7.04639
394.0000      	25380.7    	7.25214
396.0000      	25252.5    	7.24885
398.0000      	25125.6    	7.55464
400.0000      	25000    	7.93163
402.0000      	24875.6    	7.89948
404.0000      	24752.5    	8.07731
406.0000      	24630.5    	8.47255
408.0000      	24509.8    	8.54465
410.0000      	24390.2    	8.86438
412.0000      	24271.8    	9.07494
414.0000      	24154.6    	9.12572
416.0000      	24038.5    	9.28718
418.0000      	23923.4    	9.37996
420.0000      	23809.5    	9.34096
422.0000      	23696.7    	9.59368
424.0000      	23584.9    	9.71548
426.0000      	23474.2    	9.85540
428.0000      	23364.5    	9.87878
430.0000      	23255.8    	9.86740
432.0000      	23148.1    	10.14243
434.0000      	23041.5    	10.29737
436.0000      	22935.8    	10.44385
438.0000      	22831.1    	10.52040
440.0000      	22727.3    	10.75249
442.0000      	22624.4    	10.63263
444.0000      	22522.5    	10.95247
446.0000      	22421.5    	10.92189
448.0000      	22321.4    	10.99969
450.0000      	22222.2    	11.09126
452.0000      	22123.9    	11.28282
454.0000      	22026.4    	11.53293
456.0000      	21929.8    	11.65551
458.0000      	21834.1    	11.65579
460.0000      	21739.1    	11.97751
462.0000      	21645    	12.04952
464.0000      	21551.7    	12.15037
466.0000      	21459.2    	12.29072
468.0000      	21367.5    	12.53938
470.0000      	21276.6    	12.76257
472.0000      	21186.4    	13.05501
474.0000      	21097    	13.33343
476.0000      	21008.4    	13.70951
478.0000      	20920.5    	13.90640
480.0000      	20833.3    	14.20689
482.0000      	20746.9    	14.55181
484.0000      	20661.2    	14.85752
486.0000      	20576.1    	15.05224
488.0000      	20491.8    	15.38488
490.0000      	20408.2    	15.69814
492.0000      	20325.2    	15.97127
494.0000      	20242.9    	16.24227
496.0000      	20161.3    	16.42176
498.0000      	20080.3    	16.64103
500.0000      	20000    	16.78207
502.0000      	19920.3    	16.81376
504.0000      	19841.3    	16.92710
506.0000      	19762.8    	16.84894
508.0000      	19685    	16.64760
510.0000      	19607.8    	16.37836
512.0000      	19531.2    	16.06624
514.0000      	19455.3    	15.61854
516.0000      	19379.8    	15.08658
518.0000      	19305    	14.45550
520.0000      	19230.8    	13.97863
522.0000      	19157.1    	13.34273
524.0000      	19084    	12.76864
526.0000      	19011.4    	12.30879
528.0000      	18939.4    	11.83572
530.0000      	18867.9    	11.40618
532.0000      	18797    	11.12912
534.0000      	18726.6    	10.90007
536.0000      	18656.7    	10.68565
538.0000      	18587.4    	10.57629
540.0000      	18518.5    	10.54955
542.0000      	18450.2    	10.45968
544.0000      	18382.4    	10.37509
546.0000      	18315    	10.30911
548.0000      	18248.2    	10.27802
550.0000      	18181.8    	10.15545
552.0000      	18115.9    	9.99000
554.0000      	18050.5    	9.74463
556.0000      	17985.6    	9.42452
558.0000      	17921.1    	9.17027
560.0000      	17857.1    	8.80021
562.0000      	17793.6    	8.45942
564.0000      	17730.5    	8.27780
566.0000      	17667.8    	8.09368
568.0000      	17605.6    	8.00857
570.0000      	17543.9    	7.95667
572.0000      	17482.5    	7.98169
574.0000      	17421.6    	8.13887
576.0000      	17361.1    	8.31289
578.0000      	17301    	8.66449
580.0000      	17241.4    	9.11728
582.0000      	17182.1    	9.51420
584.0000      	17123.3    	9.95407
586.0000      	17064.8    	10.53837
588.0000      	17006.8    	10.96012
590.0000      	16949.2    	11.35636
592.0000      	16891.9    	11.90948
594.0000      	16835    	12.13952
596.0000      	16778.5    	12.41325
598.0000      	16722.4    	12.57754
600.0000      	16666.7    	12.65481
602.0000      	16611.3    	12.75428
604.0000      	16556.3    	12.73580
606.0000      	16501.7    	12.72730
608.0000      	16447.4    	12.79658
610.0000      	16393.4    	12.81082
612.0000      	16339.9    	12.68813
614.0000      	16286.6    	12.81496
616.0000      	16233.8    	12.81557
618.0000      	16181.2    	12.80552
620.0000      	16129    	12.74854
622.0000      	16077.2    	12.79887
624.0000      	16025.6    	12.90192
626.0000      	15974.4    	12.97879
628.0000      	15923.6    	12.99923
630.0000      	15873    	13.01828
632.0000      	15822.8    	13.03458
634.0000      	15772.9    	13.10214
636.0000      	15723.3    	13.18070
638.0000      	15674    	13.29575
640.0000      	15625    	13.45353
642.0000      	15576.3    	13.45771
644.0000      	15528    	13.66500
646.0000      	15479.9    	13.94035
648.0000      	15432.1    	14.09348
650.0000      	15384.6    	14.22778
652.0000      	15337.4    	14.45088
654.0000      	15290.5    	14.68328
656.0000      	15243.9    	14.95028
658.0000      	15197.6    	15.18933
660.0000      	15151.5    	15.46314
662.0000      	15105.7    	15.68247
664.0000      	15060.2    	15.81379
666.0000      	15015    	16.04497
668.0000      	14970.1    	16.22382
670.0000      	14925.4    	16.25810
672.0000      	14881    	16.34669
674.0000      	14836.8    	16.33095
676.0000      	14792.9    	16.27605
678.0000      	14749.3    	16.21116
680.0000      	14705.9    	16.09590
682.0000      	14662.8    	15.96731
684.0000      	14619.9    	15.97455
686.0000      	14577.3    	15.76799
688.0000      	14534.9    	15.59293
690.0000      	14492.8    	15.45839
692.0000      	14450.9    	15.33604
694.0000      	14409.2    	15.37058
696.0000      	14367.8    	15.18263
698.0000      	14326.6    	15.12690
700.0000      	14285.7    	14.94222
702.0000      	14245    	14.72750
704.0000      	14204.5    	14.62562
706.0000      	14164.3    	14.44776
708.0000      	14124.3    	14.25261
710.0000      	14084.5    	14.12345
712.0000      	14044.9    	14.11866
714.0000      	14005.6    	14.03643
716.0000      	13966.5    	14.25626
718.0000      	13927.6    	14.30615
720.0000      	13888.9    	14.44016
722.0000      	13850.4    	14.71720
724.0000      	13812.2    	14.86651
726.0000      	13774.1    	15.37410
728.0000      	13736.3    	15.73313
730.0000      	13698.6    	15.96198
732.0000      	13661.2    	16.52110
734.0000      	13624    	16.98041
736.0000      	13587    	17.48743
738.0000      	13550.1    	18.14427
740.0000      	13513.5    	19.12868
742.0000      	13477.1    	19.76047
744.0000      	13440.9    	20.87890
746.0000      	13404.8    	22.16393
748.0000      	13369    	23.22322
750.0000      	13333.3    	25.09608
752.0000      	13297.9    	26.28541
754.0000      	13262.6    	27.85518
756.0000      	13227.5    	29.60527
758.0000      	13192.6    	31.77993
760.0000      	13157.9    	33.71860
762.0000      	13123.4    	35.01552
764.0000      	13089    	36.33831
766.0000      	13054.8    	37.53927
768.0000      	13020.8    	38.60009
770.0000      	12987    	39.72192
772.0000      	12953.4    	40.67146
774.0000      	12919.9    	41.08088
776.0000      	12886.6    	42.44193
778.0000      	12853.5    	42.38572
780.0000      	12820.5    	42.98046
782.0000      	12787.7    	43.67020
784.0000      	12755.1    	43.27808
786.0000      	12722.6    	43.89017
788.0000      	12690.4    	44.55426
790.0000      	12658.2    	44.26858
792.0000      	12626.3    	44.46212
794.0000      	12594.5    	44.74860
796.0000      	12562.8    	44.80190
798.0000      	12531.3    	44.76083
800.0000      	12500    	44.65659