Folder: Ophiomastix_wendtii_orientation/data/Reflectance_measurements/Reflectance_2019_material/75_white (part 2)

File: 75_w_3.txt
Unit Serial No : 240-IM0P2424-EU
Integration Time : 10 ms
Time Average: 10
Binning Average: 2
FFT Smoothing: 0%
Project Name : RPS900-R
Sample Name :  SM240-IMOP2424-EU
Measurement No : 1
Measurement Time : 06/03/2019   16:46:56

Wavelength(nm)	Wavenumber(1/cm)	Transmittance(%)
300.0000      	33333.3    	9.51045
302.0000      	33112.6    	9.35703
304.0000      	32894.7    	8.41446
306.0000      	32679.7    	7.83972
308.0000      	32467.5    	7.70456
310.0000      	32258.1    	7.18313
312.0000      	32051.3    	8.43547
314.0000      	31847.1    	7.67930
316.0000      	31645.6    	6.64322
318.0000      	31446.5    	6.97756
320.0000      	31250    	6.45709
322.0000      	31055.9    	5.59117
324.0000      	30864.2    	6.21060
326.0000      	30674.8    	6.31958
328.0000      	30487.8    	5.86976
330.0000      	30303    	5.86537
332.0000      	30120.5    	5.98211
334.0000      	29940.1    	5.68611
336.0000      	29761.9    	5.30571
338.0000      	29585.8    	5.51475
340.0000      	29411.8    	5.62204
342.0000      	29239.8    	5.28362
344.0000      	29069.8    	5.32415
346.0000      	28901.7    	5.31243
348.0000      	28735.6    	5.19362
350.0000      	28571.4    	5.17102
352.0000      	28409.1    	5.29543
354.0000      	28248.6    	5.04111
356.0000      	28089.9    	5.36295
358.0000      	27933    	5.19571
360.0000      	27777.8    	5.20747
362.0000      	27624.3    	5.49936
364.0000      	27472.5    	5.45933
366.0000      	27322.4    	5.39775
368.0000      	27173.9    	5.40144
370.0000      	27027    	5.43436
372.0000      	26881.7    	5.51893
374.0000      	26738    	5.67307
376.0000      	26595.7    	5.65403
378.0000      	26455    	5.88970
380.0000      	26315.8    	6.13994
382.0000      	26178    	6.12137
384.0000      	26041.7    	6.23162
386.0000      	25906.7    	6.38439
388.0000      	25773.2    	6.75688
390.0000      	25641    	6.93752
392.0000      	25510.2    	6.99077
394.0000      	25380.7    	7.10456
396.0000      	25252.5    	7.20928
398.0000      	25125.6    	7.35346
400.0000      	25000    	7.75073
402.0000      	24875.6    	7.96173
404.0000      	24752.5    	8.12216
406.0000      	24630.5    	8.53388
408.0000      	24509.8    	8.69201
410.0000      	24390.2    	8.72480
412.0000      	24271.8    	9.05760
414.0000      	24154.6    	9.24149
416.0000      	24038.5    	9.27785
418.0000      	23923.4    	9.46810
420.0000      	23809.5    	9.40095
422.0000      	23696.7    	9.56112
424.0000      	23584.9    	9.72174
426.0000      	23474.2    	9.77938
428.0000      	23364.5    	9.86664
430.0000      	23255.8    	9.96882
432.0000      	23148.1    	10.13610
434.0000      	23041.5    	10.25368
436.0000      	22935.8    	10.28555
438.0000      	22831.1    	10.36491
440.0000      	22727.3    	10.63190
442.0000      	22624.4    	10.78561
444.0000      	22522.5    	10.89709
446.0000      	22421.5    	10.94634
448.0000      	22321.4    	11.03505
450.0000      	22222.2    	11.04985
452.0000      	22123.9    	11.22937
454.0000      	22026.4    	11.41111
456.0000      	21929.8    	11.54207
458.0000      	21834.1    	11.58368
460.0000      	21739.1    	11.83007
462.0000      	21645    	12.07095
464.0000      	21551.7    	12.24078
466.0000      	21459.2    	12.28417
468.0000      	21367.5    	12.56967
470.0000      	21276.6    	12.74884
472.0000      	21186.4    	13.03674
474.0000      	21097    	13.34413
476.0000      	21008.4    	13.58629
478.0000      	20920.5    	13.78500
480.0000      	20833.3    	14.16791
482.0000      	20746.9    	14.48414
484.0000      	20661.2    	14.83399
486.0000      	20576.1    	15.09642
488.0000      	20491.8    	15.38935
490.0000      	20408.2    	15.69097
492.0000      	20325.2    	15.92616
494.0000      	20242.9    	16.23208
496.0000      	20161.3    	16.41983
498.0000      	20080.3    	16.60279
500.0000      	20000    	16.68051
502.0000      	19920.3    	16.80183
504.0000      	19841.3    	16.85767
506.0000      	19762.8    	16.82054
508.0000      	19685    	16.62764
510.0000      	19607.8    	16.38492
512.0000      	19531.2    	15.95575
514.0000      	19455.3    	15.63130
516.0000      	19379.8    	15.02610
518.0000      	19305    	14.39525
520.0000      	19230.8    	13.95373
522.0000      	19157.1    	13.23218
524.0000      	19084    	12.68235
526.0000      	19011.4    	12.25207
528.0000      	18939.4    	11.76099
530.0000      	18867.9    	11.39086
532.0000      	18797    	11.05778
534.0000      	18726.6    	10.86631
536.0000      	18656.7    	10.68850
538.0000      	18587.4    	10.51569
540.0000      	18518.5    	10.49340
542.0000      	18450.2    	10.48471
544.0000      	18382.4    	10.44757
546.0000      	18315    	10.39353
548.0000      	18248.2    	10.29316
550.0000      	18181.8    	10.15948
552.0000      	18115.9    	9.98434
554.0000      	18050.5    	9.72456
556.0000      	17985.6    	9.42560
558.0000      	17921.1    	9.13050
560.0000      	17857.1    	8.80563
562.0000      	17793.6    	8.53084
564.0000      	17730.5    	8.29638
566.0000      	17667.8    	8.14824
568.0000      	17605.6    	7.96724
570.0000      	17543.9    	7.89920
572.0000      	17482.5    	8.00252
574.0000      	17421.6    	8.14399
576.0000      	17361.1    	8.32852
578.0000      	17301    	8.65708
580.0000      	17241.4    	9.08871
582.0000      	17182.1    	9.48846
584.0000      	17123.3    	9.99263
586.0000      	17064.8    	10.49797
588.0000      	17006.8    	10.91199
590.0000      	16949.2    	11.42300
592.0000      	16891.9    	11.86394
594.0000      	16835    	12.10891
596.0000      	16778.5    	12.36752
598.0000      	16722.4    	12.53042
600.0000      	16666.7    	12.62017
602.0000      	16611.3    	12.62509
604.0000      	16556.3    	12.62783
606.0000      	16501.7    	12.67307
608.0000      	16447.4    	12.63664
610.0000      	16393.4    	12.71399
612.0000      	16339.9    	12.70254
614.0000      	16286.6    	12.71451
616.0000      	16233.8    	12.74849
618.0000      	16181.2    	12.77080
620.0000      	16129    	12.74998
622.0000      	16077.2    	12.73988
624.0000      	16025.6    	12.86448
626.0000      	15974.4    	12.92003
628.0000      	15923.6    	12.91021
630.0000      	15873    	12.96725
632.0000      	15822.8    	13.06195
634.0000      	15772.9    	13.12494
636.0000      	15723.3    	13.14281
638.0000      	15674    	13.21007
640.0000      	15625    	13.41984
642.0000      	15576.3    	13.53711
644.0000      	15528    	13.68567
646.0000      	15479.9    	13.82982
648.0000      	15432.1    	13.98321
650.0000      	15384.6    	14.19031
652.0000      	15337.4    	14.49574
654.0000      	15290.5    	14.72109
656.0000      	15243.9    	14.95258
658.0000      	15197.6    	15.18143
660.0000      	15151.5    	15.43155
662.0000      	15105.7    	15.66871
664.0000      	15060.2    	15.92931
666.0000      	15015    	16.00003
668.0000      	14970.1    	16.05635
670.0000      	14925.4    	16.18219
672.0000      	14881    	16.32370
674.0000      	14836.8    	16.34920
676.0000      	14792.9    	16.30415
678.0000      	14749.3    	16.16541
680.0000      	14705.9    	16.02194
682.0000      	14662.8    	16.04982
684.0000      	14619.9    	15.92583
686.0000      	14577.3    	15.84104
688.0000      	14534.9    	15.67294
690.0000      	14492.8    	15.49570
692.0000      	14450.9    	15.43670
694.0000      	14409.2    	15.41266
696.0000      	14367.8    	15.13825
698.0000      	14326.6    	15.09677
700.0000      	14285.7    	14.90891
702.0000      	14245    	14.68820
704.0000      	14204.5    	14.56631
706.0000      	14164.3    	14.47663
708.0000      	14124.3    	14.26570
710.0000      	14084.5    	14.21924
712.0000      	14044.9    	14.16407
714.0000      	14005.6    	13.99022
716.0000      	13966.5    	14.13055
718.0000      	13927.6    	14.28664
720.0000      	13888.9    	14.45856
722.0000      	13850.4    	14.79053
724.0000      	13812.2    	14.99619
726.0000      	13774.1    	15.39610
728.0000      	13736.3    	15.79407
730.0000      	13698.6    	16.05184
732.0000      	13661.2    	16.41729
734.0000      	13624    	17.03176
736.0000      	13587    	17.45111
738.0000      	13550.1    	18.10349
740.0000      	13513.5    	19.07892
742.0000      	13477.1    	19.70352
744.0000      	13440.9    	20.76884
746.0000      	13404.8    	21.98454
748.0000      	13369    	23.13134
750.0000      	13333.3    	24.66142
752.0000      	13297.9    	25.97520
754.0000      	13262.6    	27.98592
756.0000      	13227.5    	29.50279
758.0000      	13192.6    	31.34658
760.0000      	13157.9    	33.42656
762.0000      	13123.4    	34.73676
764.0000      	13089    	36.40950
766.0000      	13054.8    	37.46065
768.0000      	13020.8    	38.44175
770.0000      	12987    	39.66666
772.0000      	12953.4    	40.74868
774.0000      	12919.9    	41.23107
776.0000      	12886.6    	42.13240
778.0000      	12853.5    	42.45985
780.0000      	12820.5    	43.18235
782.0000      	12787.7    	43.45319
784.0000      	12755.1    	43.17718
786.0000      	12722.6    	43.61890
788.0000      	12690.4    	44.37312
790.0000      	12658.2    	44.29194
792.0000      	12626.3    	44.26989
794.0000      	12594.5    	44.63668
796.0000      	12562.8    	44.68732
798.0000      	12531.3    	44.65911
800.0000      	12500    	44.94768