Folder: Ophiomastix_wendtii_orientation/data/Reflectance_measurements/Reflectance_2019_material/87

Note: README.md
# Ophiomastix_wendtii_orientation

We have measured the visual performance of the brittle star *Ophiomastix wendtii* using behavioural experiments. The peer reviewed publication is available at https://doi.org/10.1242/jeb.236653.


### Prerequisites

R 3.6.3 was used for this work, and a similar version is required. The Rstudio  1.2.5 IDE was used.


## Code Authors

* **Lauren Sumner-Rooney** - *Initial work* - []()

* **John D. Kirwan**       - *Initial work* - [](https://github.com/JohnKirwan)


## Code Acknowledgments

* Thanks to James J. Foster for plotting and modelling code.

File: 87.txt
Unit Serial No : 240-IM0P2424-EU
Integration Time : 10 ms
Time Average: 10
Binning Average: 2
FFT Smoothing: 0%
Project Name : RPS900-R
Sample Name :  SM240-IMOP2424-EU
Measurement No : 1
Measurement Time : 06/03/2019   14:32:41

Wavelength(nm)	Wavenumber(1/cm)	Transmittance(%)
300.0000      	33333.3    	7.42838
302.0000      	33112.6    	6.87927
304.0000      	32894.7    	5.87303
306.0000      	32679.7    	6.34453
308.0000      	32467.5    	6.08684
310.0000      	32258.1    	5.64748
312.0000      	32051.3    	6.51409
314.0000      	31847.1    	6.70701
316.0000      	31645.6    	5.42041
318.0000      	31446.5    	5.41574
320.0000      	31250    	4.71885
322.0000      	31055.9    	5.31185
324.0000      	30864.2    	5.15860
326.0000      	30674.8    	4.72280
328.0000      	30487.8    	5.13122
330.0000      	30303    	5.56711
332.0000      	30120.5    	5.03357
334.0000      	29940.1    	5.20586
336.0000      	29761.9    	4.85143
338.0000      	29585.8    	4.81577
340.0000      	29411.8    	5.20243
342.0000      	29239.8    	4.79760
344.0000      	29069.8    	4.81661
346.0000      	28901.7    	4.96682
348.0000      	28735.6    	5.02299
350.0000      	28571.4    	4.65096
352.0000      	28409.1    	4.61178
354.0000      	28248.6    	4.65544
356.0000      	28089.9    	4.96232
358.0000      	27933    	4.97762
360.0000      	27777.8    	4.82460
362.0000      	27624.3    	4.72144
364.0000      	27472.5    	4.42349
366.0000      	27322.4    	4.75153
368.0000      	27173.9    	4.69666
370.0000      	27027    	4.69464
372.0000      	26881.7    	4.66688
374.0000      	26738    	4.83250
376.0000      	26595.7    	4.62393
378.0000      	26455    	5.05935
380.0000      	26315.8    	5.02913
382.0000      	26178    	4.85559
384.0000      	26041.7    	4.95384
386.0000      	25906.7    	4.98324
388.0000      	25773.2    	5.14247
390.0000      	25641    	5.27223
392.0000      	25510.2    	5.30128
394.0000      	25380.7    	5.28940
396.0000      	25252.5    	5.37189
398.0000      	25125.6    	5.42496
400.0000      	25000    	5.51715
402.0000      	24875.6    	5.73427
404.0000      	24752.5    	5.72750
406.0000      	24630.5    	5.81273
408.0000      	24509.8    	6.06661
410.0000      	24390.2    	5.83515
412.0000      	24271.8    	5.94644
414.0000      	24154.6    	6.02853
416.0000      	24038.5    	6.04195
418.0000      	23923.4    	6.10422
420.0000      	23809.5    	6.07895
422.0000      	23696.7    	6.06204
424.0000      	23584.9    	6.13319
426.0000      	23474.2    	6.24467
428.0000      	23364.5    	6.14304
430.0000      	23255.8    	6.07705
432.0000      	23148.1    	6.51215
434.0000      	23041.5    	6.53951
436.0000      	22935.8    	6.44955
438.0000      	22831.1    	6.52196
440.0000      	22727.3    	6.58517
442.0000      	22624.4    	6.63245
444.0000      	22522.5    	6.78525
446.0000      	22421.5    	6.85092
448.0000      	22321.4    	6.73206
450.0000      	22222.2    	6.73410
452.0000      	22123.9    	6.86186
454.0000      	22026.4    	7.06857
456.0000      	21929.8    	7.08833
458.0000      	21834.1    	7.15752
460.0000      	21739.1    	7.21805
462.0000      	21645    	7.36316
464.0000      	21551.7    	7.36956
466.0000      	21459.2    	7.46652
468.0000      	21367.5    	7.57172
470.0000      	21276.6    	7.61555
472.0000      	21186.4    	7.65205
474.0000      	21097    	7.82738
476.0000      	21008.4    	7.98255
478.0000      	20920.5    	8.11360
480.0000      	20833.3    	8.25560
482.0000      	20746.9    	8.33735
484.0000      	20661.2    	8.45703
486.0000      	20576.1    	8.55284
488.0000      	20491.8    	8.71335
490.0000      	20408.2    	8.81003
492.0000      	20325.2    	8.95610
494.0000      	20242.9    	9.11625
496.0000      	20161.3    	9.19002
498.0000      	20080.3    	9.19988
500.0000      	20000    	9.23204
502.0000      	19920.3    	9.26461
504.0000      	19841.3    	9.24980
506.0000      	19762.8    	9.25824
508.0000      	19685    	9.15845
510.0000      	19607.8    	9.02704
512.0000      	19531.2    	8.87719
514.0000      	19455.3    	8.71122
516.0000      	19379.8    	8.47524
518.0000      	19305    	8.22260
520.0000      	19230.8    	8.00910
522.0000      	19157.1    	7.76684
524.0000      	19084    	7.55910
526.0000      	19011.4    	7.37210
528.0000      	18939.4    	7.15411
530.0000      	18867.9    	6.97778
532.0000      	18797    	6.85308
534.0000      	18726.6    	6.75753
536.0000      	18656.7    	6.66852
538.0000      	18587.4    	6.56694
540.0000      	18518.5    	6.60658
542.0000      	18450.2    	6.56858
544.0000      	18382.4    	6.53960
546.0000      	18315    	6.51787
548.0000      	18248.2    	6.47730
550.0000      	18181.8    	6.38999
552.0000      	18115.9    	6.33958
554.0000      	18050.5    	6.23305
556.0000      	17985.6    	6.04086
558.0000      	17921.1    	5.91743
560.0000      	17857.1    	5.81227
562.0000      	17793.6    	5.63237
564.0000      	17730.5    	5.55985
566.0000      	17667.8    	5.48690
568.0000      	17605.6    	5.44411
570.0000      	17543.9    	5.42118
572.0000      	17482.5    	5.45336
574.0000      	17421.6    	5.53981
576.0000      	17361.1    	5.63764
578.0000      	17301    	5.79349
580.0000      	17241.4    	6.00331
582.0000      	17182.1    	6.14397
584.0000      	17123.3    	6.35747
586.0000      	17064.8    	6.57526
588.0000      	17006.8    	6.73687
590.0000      	16949.2    	7.01939
592.0000      	16891.9    	7.29359
594.0000      	16835    	7.40430
596.0000      	16778.5    	7.38647
598.0000      	16722.4    	7.53228
600.0000      	16666.7    	7.57550
602.0000      	16611.3    	7.53753
604.0000      	16556.3    	7.54062
606.0000      	16501.7    	7.60742
608.0000      	16447.4    	7.56864
610.0000      	16393.4    	7.64982
612.0000      	16339.9    	7.61879
614.0000      	16286.6    	7.62053
616.0000      	16233.8    	7.61417
618.0000      	16181.2    	7.59100
620.0000      	16129    	7.66233
622.0000      	16077.2    	7.66419
624.0000      	16025.6    	7.67360
626.0000      	15974.4    	7.74921
628.0000      	15923.6    	7.85035
630.0000      	15873    	7.82141
632.0000      	15822.8    	7.83070
634.0000      	15772.9    	7.82801
636.0000      	15723.3    	7.82651
638.0000      	15674    	7.84238
640.0000      	15625    	7.93919
642.0000      	15576.3    	7.93700
644.0000      	15528    	8.10971
646.0000      	15479.9    	8.21309
648.0000      	15432.1    	8.27367
650.0000      	15384.6    	8.25665
652.0000      	15337.4    	8.44001
654.0000      	15290.5    	8.50060
656.0000      	15243.9    	8.61554
658.0000      	15197.6    	8.66500
660.0000      	15151.5    	8.80950
662.0000      	15105.7    	8.86144
664.0000      	15060.2    	8.93984
666.0000      	15015    	8.97960
668.0000      	14970.1    	9.06450
670.0000      	14925.4    	9.13993
672.0000      	14881    	9.21352
674.0000      	14836.8    	9.09299
676.0000      	14792.9    	9.07020
678.0000      	14749.3    	9.02092
680.0000      	14705.9    	9.07436
682.0000      	14662.8    	9.04810
684.0000      	14619.9    	9.05071
686.0000      	14577.3    	9.06392
688.0000      	14534.9    	9.05711
690.0000      	14492.8    	8.93715
692.0000      	14450.9    	8.87800
694.0000      	14409.2    	8.87158
696.0000      	14367.8    	8.75804
698.0000      	14326.6    	8.68823
700.0000      	14285.7    	8.70534
702.0000      	14245    	8.57609
704.0000      	14204.5    	8.48517
706.0000      	14164.3    	8.48434
708.0000      	14124.3    	8.45792
710.0000      	14084.5    	8.41363
712.0000      	14044.9    	8.44096
714.0000      	14005.6    	8.47717
716.0000      	13966.5    	8.47442
718.0000      	13927.6    	8.52615
720.0000      	13888.9    	8.62671
722.0000      	13850.4    	8.79383
724.0000      	13812.2    	8.85372
726.0000      	13774.1    	9.00330
728.0000      	13736.3    	9.18878
730.0000      	13698.6    	9.26611
732.0000      	13661.2    	9.43706
734.0000      	13624    	9.67619
736.0000      	13587    	9.85568
738.0000      	13550.1    	10.09457
740.0000      	13513.5    	10.55359
742.0000      	13477.1    	10.87878
744.0000      	13440.9    	11.28764
746.0000      	13404.8    	11.67030
748.0000      	13369    	12.05713
750.0000      	13333.3    	12.75674
752.0000      	13297.9    	13.43703
754.0000      	13262.6    	14.08568
756.0000      	13227.5    	14.48241
758.0000      	13192.6    	15.51864
760.0000      	13157.9    	16.35264
762.0000      	13123.4    	16.56774
764.0000      	13089    	17.22306
766.0000      	13054.8    	17.45907
768.0000      	13020.8    	17.81948
770.0000      	12987    	18.23430
772.0000      	12953.4    	18.54446
774.0000      	12919.9    	18.81915
776.0000      	12886.6    	19.34116
778.0000      	12853.5    	19.30031
780.0000      	12820.5    	19.44664
782.0000      	12787.7    	19.40819
784.0000      	12755.1    	19.52743
786.0000      	12722.6    	19.68635
788.0000      	12690.4    	19.77485
790.0000      	12658.2    	20.12557
792.0000      	12626.3    	19.91046
794.0000      	12594.5    	19.75711
796.0000      	12562.8    	20.15854
798.0000      	12531.3    	20.20496
800.0000      	12500    	20.47569

File: 87_2.txt
Unit Serial No : 240-IM0P2424-EU
Integration Time : 10 ms
Time Average: 10
Binning Average: 2
FFT Smoothing: 0%
Project Name : RPS900-R
Sample Name :  SM240-IMOP2424-EU
Measurement No : 1
Measurement Time : 06/03/2019   14:45:05

Wavelength(nm)	Wavenumber(1/cm)	Transmittance(%)
300.0000      	33333.3    	2.40178
302.0000      	33112.6    	2.52692
304.0000      	32894.7    	2.11925
306.0000      	32679.7    	1.75877
308.0000      	32467.5    	2.10568
310.0000      	32258.1    	2.06049
312.0000      	32051.3    	1.44715
314.0000      	31847.1    	2.76947
316.0000      	31645.6    	0.73736
318.0000      	31446.5    	1.61926
320.0000      	31250    	1.87336
322.0000      	31055.9    	0.80555
324.0000      	30864.2    	1.48096
326.0000      	30674.8    	1.37951
328.0000      	30487.8    	1.20744
330.0000      	30303    	1.34089
332.0000      	30120.5    	1.03106
334.0000      	29940.1    	1.19946
336.0000      	29761.9    	1.10732
338.0000      	29585.8    	1.08250
340.0000      	29411.8    	0.97382
342.0000      	29239.8    	1.31395
344.0000      	29069.8    	1.14922
346.0000      	28901.7    	1.17309
348.0000      	28735.6    	1.14257
350.0000      	28571.4    	0.94983
352.0000      	28409.1    	0.97538
354.0000      	28248.6    	1.13857
356.0000      	28089.9    	1.15831
358.0000      	27933    	0.82679
360.0000      	27777.8    	0.70770
362.0000      	27624.3    	1.17624
364.0000      	27472.5    	1.10499
366.0000      	27322.4    	0.98305
368.0000      	27173.9    	0.85866
370.0000      	27027    	0.87117
372.0000      	26881.7    	0.67303
374.0000      	26738    	0.80240
376.0000      	26595.7    	0.74363
378.0000      	26455    	0.66175
380.0000      	26315.8    	0.85221
382.0000      	26178    	0.68421
384.0000      	26041.7    	0.80107
386.0000      	25906.7    	0.79292
388.0000      	25773.2    	0.78201
390.0000      	25641    	0.97602
392.0000      	25510.2    	0.80932
394.0000      	25380.7    	0.83937
396.0000      	25252.5    	0.79694
398.0000      	25125.6    	0.64277
400.0000      	25000    	0.74292
402.0000      	24875.6    	0.86258
404.0000      	24752.5    	0.69884
406.0000      	24630.5    	0.70864
408.0000      	24509.8    	0.68353
410.0000      	24390.2    	0.77681
412.0000      	24271.8    	0.84833
414.0000      	24154.6    	0.80065
416.0000      	24038.5    	0.74158
418.0000      	23923.4    	0.80658
420.0000      	23809.5    	0.75217
422.0000      	23696.7    	0.63583
424.0000      	23584.9    	0.86932
426.0000      	23474.2    	0.74770
428.0000      	23364.5    	0.64678
430.0000      	23255.8    	0.80299
432.0000      	23148.1    	0.65703
434.0000      	23041.5    	0.72293
436.0000      	22935.8    	0.73029
438.0000      	22831.1    	0.70890
440.0000      	22727.3    	0.76594
442.0000      	22624.4    	0.67180
444.0000      	22522.5    	0.81881
446.0000      	22421.5    	0.78046
448.0000      	22321.4    	0.70784
450.0000      	22222.2    	0.67279
452.0000      	22123.9    	0.69261
454.0000      	22026.4    	0.66914
456.0000      	21929.8    	0.71067
458.0000      	21834.1    	0.69741
460.0000      	21739.1    	0.60798
462.0000      	21645    	0.67705
464.0000      	21551.7    	0.71734
466.0000      	21459.2    	0.69997
468.0000      	21367.5    	0.66856
470.0000      	21276.6    	0.73740
472.0000      	21186.4    	0.69223
474.0000      	21097    	0.71347
476.0000      	21008.4    	0.64246
478.0000      	20920.5    	0.64060
480.0000      	20833.3    	0.67554
482.0000      	20746.9    	0.62963
484.0000      	20661.2    	0.63952
486.0000      	20576.1    	0.65015
488.0000      	20491.8    	0.58215
490.0000      	20408.2    	0.62160
492.0000      	20325.2    	0.65007
494.0000      	20242.9    	0.64395
496.0000      	20161.3    	0.66348
498.0000      	20080.3    	0.62385
500.0000      	20000    	0.60567
502.0000      	19920.3    	0.65058
504.0000      	19841.3    	0.66686
506.0000      	19762.8    	0.63588
508.0000      	19685    	0.65208
510.0000      	19607.8    	0.62265
512.0000      	19531.2    	0.63169
514.0000      	19455.3    	0.64382
516.0000      	19379.8    	0.62888
518.0000      	19305    	0.62550
520.0000      	19230.8    	0.67475
522.0000      	19157.1    	0.65914
524.0000      	19084    	0.66437
526.0000      	19011.4    	0.65277
528.0000      	18939.4    	0.62025
530.0000      	18867.9    	0.66146
532.0000      	18797    	0.70880
534.0000      	18726.6    	0.66916
536.0000      	18656.7    	0.64267
538.0000      	18587.4    	0.63572
540.0000      	18518.5    	0.63450
542.0000      	18450.2    	0.66532
544.0000      	18382.4    	0.65928
546.0000      	18315    	0.64732
548.0000      	18248.2    	0.64496
550.0000      	18181.8    	0.67338
552.0000      	18115.9    	0.64311
554.0000      	18050.5    	0.68630
556.0000      	17985.6    	0.66918
558.0000      	17921.1    	0.67632
560.0000      	17857.1    	0.67366
562.0000      	17793.6    	0.63827
564.0000      	17730.5    	0.65145
566.0000      	17667.8    	0.67986
568.0000      	17605.6    	0.68396
570.0000      	17543.9    	0.70511
572.0000      	17482.5    	0.67299
574.0000      	17421.6    	0.65392
576.0000      	17361.1    	0.66229
578.0000      	17301    	0.66536
580.0000      	17241.4    	0.67900
582.0000      	17182.1    	0.69704
584.0000      	17123.3    	0.65729
586.0000      	17064.8    	0.67706
588.0000      	17006.8    	0.67934
590.0000      	16949.2    	0.68121
592.0000      	16891.9    	0.61350
594.0000      	16835    	0.65184
596.0000      	16778.5    	0.68410
598.0000      	16722.4    	0.70713
600.0000      	16666.7    	0.70756
602.0000      	16611.3    	0.61854
604.0000      	16556.3    	0.65301
606.0000      	16501.7    	0.71128
608.0000      	16447.4    	0.63147
610.0000      	16393.4    	0.64691
612.0000      	16339.9    	0.74215
614.0000      	16286.6    	0.72285
616.0000      	16233.8    	0.66394
618.0000      	16181.2    	0.69676
620.0000      	16129    	0.68685
622.0000      	16077.2    	0.69302
624.0000      	16025.6    	0.67167
626.0000      	15974.4    	0.65748
628.0000      	15923.6    	0.66146
630.0000      	15873    	0.67732
632.0000      	15822.8    	0.65496
634.0000      	15772.9    	0.66986
636.0000      	15723.3    	0.73329
638.0000      	15674    	0.69738
640.0000      	15625    	0.72481
642.0000      	15576.3    	0.71729
644.0000      	15528    	0.63793
646.0000      	15479.9    	0.72675
648.0000      	15432.1    	0.75427
650.0000      	15384.6    	0.65344
652.0000      	15337.4    	0.69958
654.0000      	15290.5    	0.74511
656.0000      	15243.9    	0.71094
658.0000      	15197.6    	0.76135
660.0000      	15151.5    	0.76861
662.0000      	15105.7    	0.75388
664.0000      	15060.2    	0.77526
666.0000      	15015    	0.75732
668.0000      	14970.1    	0.64348
670.0000      	14925.4    	0.78155
672.0000      	14881    	0.80125
674.0000      	14836.8    	0.71996
676.0000      	14792.9    	0.74819
678.0000      	14749.3    	0.76050
680.0000      	14705.9    	0.72996
682.0000      	14662.8    	0.76358
684.0000      	14619.9    	0.72963
686.0000      	14577.3    	0.76518
688.0000      	14534.9    	0.80143
690.0000      	14492.8    	0.68666
692.0000      	14450.9    	0.72306
694.0000      	14409.2    	0.77396
696.0000      	14367.8    	0.74214
698.0000      	14326.6    	0.73316
700.0000      	14285.7    	0.78421
702.0000      	14245    	0.85070
704.0000      	14204.5    	0.78632
706.0000      	14164.3    	0.84975
708.0000      	14124.3    	0.78209
710.0000      	14084.5    	0.82541
712.0000      	14044.9    	0.81134
714.0000      	14005.6    	0.67757
716.0000      	13966.5    	0.79854
718.0000      	13927.6    	0.90940
720.0000      	13888.9    	0.85508
722.0000      	13850.4    	0.98885
724.0000      	13812.2    	1.00570
726.0000      	13774.1    	0.84790
728.0000      	13736.3    	0.79298
730.0000      	13698.6    	0.94712
732.0000      	13661.2    	0.88229
734.0000      	13624    	0.80257
736.0000      	13587    	0.86961
738.0000      	13550.1    	0.96563
740.0000      	13513.5    	1.08077
742.0000      	13477.1    	1.20121
744.0000      	13440.9    	0.98617
746.0000      	13404.8    	0.90432
748.0000      	13369    	1.02751
750.0000      	13333.3    	0.96455
752.0000      	13297.9    	0.87253
754.0000      	13262.6    	1.02008
756.0000      	13227.5    	1.06565
758.0000      	13192.6    	1.03034
760.0000      	13157.9    	1.00442
762.0000      	13123.4    	1.00813
764.0000      	13089    	1.10905
766.0000      	13054.8    	1.06682
768.0000      	13020.8    	0.90160
770.0000      	12987    	0.98964
772.0000      	12953.4    	1.00927
774.0000      	12919.9    	0.87757
776.0000      	12886.6    	1.28063
778.0000      	12853.5    	0.99574
780.0000      	12820.5    	1.07254
782.0000      	12787.7    	1.35054
784.0000      	12755.1    	1.35058
786.0000      	12722.6    	1.07558
788.0000      	12690.4    	1.30374
790.0000      	12658.2    	1.28841
792.0000      	12626.3    	0.86563
794.0000      	12594.5    	1.03101
796.0000      	12562.8    	1.12386
798.0000      	12531.3    	1.20195
800.0000      	12500    	1.31448