Folder: Ophiomastix_wendtii_orientation/data/Reflectance_measurements/Reflectance_2019_material/87 (part 2)

File: 87_3 .txt
Unit Serial No : 240-IM0P2424-EU
Integration Time : 10 ms
Time Average: 10
Binning Average: 2
FFT Smoothing: 0%
Project Name : RPS900-R
Sample Name :  SM240-IMOP2424-EU
Measurement No : 1
Measurement Time : 06/03/2019   14:45:31

Wavelength(nm)	Wavenumber(1/cm)	Transmittance(%)
300.0000      	33333.3    	3.50832
302.0000      	33112.6    	1.12788
304.0000      	32894.7    	3.43671
306.0000      	32679.7    	3.03000
308.0000      	32467.5    	1.39970
310.0000      	32258.1    	1.64184
312.0000      	32051.3    	1.90204
314.0000      	31847.1    	1.89312
316.0000      	31645.6    	2.45748
318.0000      	31446.5    	1.61190
320.0000      	31250    	1.44195
322.0000      	31055.9    	1.43756
324.0000      	30864.2    	1.06247
326.0000      	30674.8    	1.36572
328.0000      	30487.8    	1.46098
330.0000      	30303    	0.87147
332.0000      	30120.5    	1.66449
334.0000      	29940.1    	1.24192
336.0000      	29761.9    	0.85880
338.0000      	29585.8    	1.44773
340.0000      	29411.8    	0.93975
342.0000      	29239.8    	1.37732
344.0000      	29069.8    	1.05824
346.0000      	28901.7    	0.90404
348.0000      	28735.6    	1.34479
350.0000      	28571.4    	1.13249
352.0000      	28409.1    	0.65604
354.0000      	28248.6    	1.11522
356.0000      	28089.9    	0.99009
358.0000      	27933    	0.91205
360.0000      	27777.8    	1.24782
362.0000      	27624.3    	0.94620
364.0000      	27472.5    	1.11595
366.0000      	27322.4    	0.93647
368.0000      	27173.9    	0.55225
370.0000      	27027    	0.79088
372.0000      	26881.7    	0.97998
374.0000      	26738    	0.69619
376.0000      	26595.7    	0.90976
378.0000      	26455    	0.72261
380.0000      	26315.8    	0.77707
382.0000      	26178    	0.97076
384.0000      	26041.7    	0.76579
386.0000      	25906.7    	0.73405
388.0000      	25773.2    	0.82620
390.0000      	25641    	0.74546
392.0000      	25510.2    	0.78527
394.0000      	25380.7    	0.81071
396.0000      	25252.5    	0.65486
398.0000      	25125.6    	0.71702
400.0000      	25000    	0.72793
402.0000      	24875.6    	0.59361
404.0000      	24752.5    	0.79353
406.0000      	24630.5    	0.74479
408.0000      	24509.8    	0.84772
410.0000      	24390.2    	0.91925
412.0000      	24271.8    	0.72459
414.0000      	24154.6    	0.62078
416.0000      	24038.5    	0.75443
418.0000      	23923.4    	0.67970
420.0000      	23809.5    	0.74298
422.0000      	23696.7    	0.70475
424.0000      	23584.9    	0.58250
426.0000      	23474.2    	0.72310
428.0000      	23364.5    	0.73642
430.0000      	23255.8    	0.67349
432.0000      	23148.1    	0.75193
434.0000      	23041.5    	0.62546
436.0000      	22935.8    	0.60200
438.0000      	22831.1    	0.75358
440.0000      	22727.3    	0.62942
442.0000      	22624.4    	0.65093
444.0000      	22522.5    	0.84645
446.0000      	22421.5    	0.69758
448.0000      	22321.4    	0.68416
450.0000      	22222.2    	0.69458
452.0000      	22123.9    	0.55209
454.0000      	22026.4    	0.74826
456.0000      	21929.8    	0.70976
458.0000      	21834.1    	0.61242
460.0000      	21739.1    	0.73736
462.0000      	21645    	0.71264
464.0000      	21551.7    	0.65853
466.0000      	21459.2    	0.74750
468.0000      	21367.5    	0.57027
470.0000      	21276.6    	0.65392
472.0000      	21186.4    	0.73109
474.0000      	21097    	0.61779
476.0000      	21008.4    	0.70089
478.0000      	20920.5    	0.68599
480.0000      	20833.3    	0.58537
482.0000      	20746.9    	0.67052
484.0000      	20661.2    	0.64502
486.0000      	20576.1    	0.58427
488.0000      	20491.8    	0.59018
490.0000      	20408.2    	0.63695
492.0000      	20325.2    	0.63867
494.0000      	20242.9    	0.68061
496.0000      	20161.3    	0.65103
498.0000      	20080.3    	0.65088
500.0000      	20000    	0.67227
502.0000      	19920.3    	0.64123
504.0000      	19841.3    	0.64847
506.0000      	19762.8    	0.68322
508.0000      	19685    	0.62985
510.0000      	19607.8    	0.60214
512.0000      	19531.2    	0.66055
514.0000      	19455.3    	0.61655
516.0000      	19379.8    	0.64920
518.0000      	19305    	0.65852
520.0000      	19230.8    	0.66240
522.0000      	19157.1    	0.69419
524.0000      	19084    	0.67890
526.0000      	19011.4    	0.60172
528.0000      	18939.4    	0.63751
530.0000      	18867.9    	0.64072
532.0000      	18797    	0.61415
534.0000      	18726.6    	0.67299
536.0000      	18656.7    	0.64848
538.0000      	18587.4    	0.60990
540.0000      	18518.5    	0.64781
542.0000      	18450.2    	0.63163
544.0000      	18382.4    	0.65548
546.0000      	18315    	0.67274
548.0000      	18248.2    	0.60322
550.0000      	18181.8    	0.65517
552.0000      	18115.9    	0.65709
554.0000      	18050.5    	0.64633
556.0000      	17985.6    	0.64011
558.0000      	17921.1    	0.69086
560.0000      	17857.1    	0.63474
562.0000      	17793.6    	0.67546
564.0000      	17730.5    	0.68587
566.0000      	17667.8    	0.62078
568.0000      	17605.6    	0.64602
570.0000      	17543.9    	0.69100
572.0000      	17482.5    	0.61619
574.0000      	17421.6    	0.66550
576.0000      	17361.1    	0.66097
578.0000      	17301    	0.61191
580.0000      	17241.4    	0.68795
582.0000      	17182.1    	0.71799
584.0000      	17123.3    	0.62167
586.0000      	17064.8    	0.68205
588.0000      	17006.8    	0.63699
590.0000      	16949.2    	0.63703
592.0000      	16891.9    	0.69530
594.0000      	16835    	0.65363
596.0000      	16778.5    	0.64152
598.0000      	16722.4    	0.72763
600.0000      	16666.7    	0.67047
602.0000      	16611.3    	0.64138
604.0000      	16556.3    	0.69700
606.0000      	16501.7    	0.64156
608.0000      	16447.4    	0.64513
610.0000      	16393.4    	0.68760
612.0000      	16339.9    	0.64946
614.0000      	16286.6    	0.66460
616.0000      	16233.8    	0.68802
618.0000      	16181.2    	0.65438
620.0000      	16129    	0.68847
622.0000      	16077.2    	0.71519
624.0000      	16025.6    	0.60865
626.0000      	15974.4    	0.67316
628.0000      	15923.6    	0.71759
630.0000      	15873    	0.68968
632.0000      	15822.8    	0.70549
634.0000      	15772.9    	0.64185
636.0000      	15723.3    	0.67897
638.0000      	15674    	0.79127
640.0000      	15625    	0.72761
642.0000      	15576.3    	0.65660
644.0000      	15528    	0.73121
646.0000      	15479.9    	0.74296
648.0000      	15432.1    	0.68427
650.0000      	15384.6    	0.68640
652.0000      	15337.4    	0.72999
654.0000      	15290.5    	0.67437
656.0000      	15243.9    	0.75180
658.0000      	15197.6    	0.74066
660.0000      	15151.5    	0.75684
662.0000      	15105.7    	0.80542
664.0000      	15060.2    	0.68629
666.0000      	15015    	0.67280
668.0000      	14970.1    	0.71746
670.0000      	14925.4    	0.66704
672.0000      	14881    	0.72539
674.0000      	14836.8    	0.75251
676.0000      	14792.9    	0.71815
678.0000      	14749.3    	0.75143
680.0000      	14705.9    	0.73508
682.0000      	14662.8    	0.64963
684.0000      	14619.9    	0.66317
686.0000      	14577.3    	0.75324
688.0000      	14534.9    	0.67185
690.0000      	14492.8    	0.76106
692.0000      	14450.9    	0.79672
694.0000      	14409.2    	0.75810
696.0000      	14367.8    	0.79090
698.0000      	14326.6    	0.78470
700.0000      	14285.7    	0.73471
702.0000      	14245    	0.89448
704.0000      	14204.5    	0.87616
706.0000      	14164.3    	0.72296
708.0000      	14124.3    	0.78956
710.0000      	14084.5    	0.86970
712.0000      	14044.9    	0.72396
714.0000      	14005.6    	0.85783
716.0000      	13966.5    	0.90123
718.0000      	13927.6    	0.81971
720.0000      	13888.9    	0.85965
722.0000      	13850.4    	0.85953
724.0000      	13812.2    	0.80548
726.0000      	13774.1    	0.98408
728.0000      	13736.3    	0.87213
730.0000      	13698.6    	0.80454
732.0000      	13661.2    	0.98975
734.0000      	13624    	0.89871
736.0000      	13587    	0.78811
738.0000      	13550.1    	1.01458
740.0000      	13513.5    	0.86995
742.0000      	13477.1    	0.86159
744.0000      	13440.9    	1.07081
746.0000      	13404.8    	0.85383
748.0000      	13369    	0.88127
750.0000      	13333.3    	1.15725
752.0000      	13297.9    	1.01150
754.0000      	13262.6    	0.91951
756.0000      	13227.5    	1.18243
758.0000      	13192.6    	0.94712
760.0000      	13157.9    	1.06456
762.0000      	13123.4    	1.14366
764.0000      	13089    	0.89605
766.0000      	13054.8    	0.94106
768.0000      	13020.8    	1.00602
770.0000      	12987    	1.00482
772.0000      	12953.4    	1.08038
774.0000      	12919.9    	1.23035
776.0000      	12886.6    	1.01341
778.0000      	12853.5    	0.95003
780.0000      	12820.5    	1.50014
782.0000      	12787.7    	0.90980
784.0000      	12755.1    	0.80104
786.0000      	12722.6    	1.25522
788.0000      	12690.4    	1.27363
790.0000      	12658.2    	1.07537
792.0000      	12626.3    	1.28938
794.0000      	12594.5    	1.15837
796.0000      	12562.8    	1.18691
798.0000      	12531.3    	1.31620
800.0000      	12500    	1.08654