Folder: Ophiomastix_wendtii_orientation/data/Reflectance_measurements/Reflectance_2019_material/87_white (part 2)

File: 87_white_3.txt
Unit Serial No : 240-IM0P2424-EU
Integration Time : 10 ms
Time Average: 10
Binning Average: 2
FFT Smoothing: 0%
Project Name : RPS900-R
Sample Name :  SM240-IMOP2424-EU
Measurement No : 1
Measurement Time : 06/03/2019   14:46:42

Wavelength(nm)	Wavenumber(1/cm)	Transmittance(%)
300.0000      	33333.3    	8.30117
302.0000      	33112.6    	7.33317
304.0000      	32894.7    	8.75214
306.0000      	32679.7    	6.35951
308.0000      	32467.5    	7.23023
310.0000      	32258.1    	7.63820
312.0000      	32051.3    	6.34657
314.0000      	31847.1    	8.27453
316.0000      	31645.6    	6.56415
318.0000      	31446.5    	5.97056
320.0000      	31250    	6.56758
322.0000      	31055.9    	6.05347
324.0000      	30864.2    	6.07331
326.0000      	30674.8    	6.38552
328.0000      	30487.8    	5.78132
330.0000      	30303    	5.93801
332.0000      	30120.5    	6.38411
334.0000      	29940.1    	5.69215
336.0000      	29761.9    	5.26918
338.0000      	29585.8    	5.53543
340.0000      	29411.8    	5.17461
342.0000      	29239.8    	5.50711
344.0000      	29069.8    	5.34857
346.0000      	28901.7    	5.36523
348.0000      	28735.6    	5.69754
350.0000      	28571.4    	5.17565
352.0000      	28409.1    	5.09643
354.0000      	28248.6    	5.39223
356.0000      	28089.9    	5.16288
358.0000      	27933    	5.16545
360.0000      	27777.8    	5.39432
362.0000      	27624.3    	5.01832
364.0000      	27472.5    	5.25331
366.0000      	27322.4    	5.20195
368.0000      	27173.9    	5.33085
370.0000      	27027    	5.26534
372.0000      	26881.7    	5.05682
374.0000      	26738    	5.14617
376.0000      	26595.7    	5.27800
378.0000      	26455    	5.46268
380.0000      	26315.8    	5.50405
382.0000      	26178    	5.60336
384.0000      	26041.7    	5.44484
386.0000      	25906.7    	5.87803
388.0000      	25773.2    	5.63158
390.0000      	25641    	5.84322
392.0000      	25510.2    	5.88309
394.0000      	25380.7    	6.00821
396.0000      	25252.5    	6.19311
398.0000      	25125.6    	6.17180
400.0000      	25000    	6.09421
402.0000      	24875.6    	6.23780
404.0000      	24752.5    	6.40307
406.0000      	24630.5    	6.53105
408.0000      	24509.8    	6.55455
410.0000      	24390.2    	6.61008
412.0000      	24271.8    	6.72390
414.0000      	24154.6    	6.80156
416.0000      	24038.5    	6.71329
418.0000      	23923.4    	6.79537
420.0000      	23809.5    	6.82679
422.0000      	23696.7    	6.76296
424.0000      	23584.9    	6.99244
426.0000      	23474.2    	7.00665
428.0000      	23364.5    	6.96826
430.0000      	23255.8    	7.13537
432.0000      	23148.1    	7.10805
434.0000      	23041.5    	7.05283
436.0000      	22935.8    	7.19221
438.0000      	22831.1    	7.22361
440.0000      	22727.3    	7.31286
442.0000      	22624.4    	7.34246
444.0000      	22522.5    	7.66064
446.0000      	22421.5    	7.48975
448.0000      	22321.4    	7.54820
450.0000      	22222.2    	7.56874
452.0000      	22123.9    	7.69115
454.0000      	22026.4    	7.78260
456.0000      	21929.8    	7.73197
458.0000      	21834.1    	7.80394
460.0000      	21739.1    	7.87084
462.0000      	21645    	7.85127
464.0000      	21551.7    	8.06906
466.0000      	21459.2    	8.21741
468.0000      	21367.5    	8.24247
470.0000      	21276.6    	8.39201
472.0000      	21186.4    	8.50503
474.0000      	21097    	8.61788
476.0000      	21008.4    	8.74007
478.0000      	20920.5    	8.84668
480.0000      	20833.3    	9.02347
482.0000      	20746.9    	9.10850
484.0000      	20661.2    	9.21608
486.0000      	20576.1    	9.33834
488.0000      	20491.8    	9.48765
490.0000      	20408.2    	9.61114
492.0000      	20325.2    	9.76538
494.0000      	20242.9    	9.86789
496.0000      	20161.3    	9.94534
498.0000      	20080.3    	10.03230
500.0000      	20000    	10.10422
502.0000      	19920.3    	10.16437
504.0000      	19841.3    	10.20140
506.0000      	19762.8    	10.12635
508.0000      	19685    	10.03561
510.0000      	19607.8    	9.90383
512.0000      	19531.2    	9.76110
514.0000      	19455.3    	9.55407
516.0000      	19379.8    	9.36673
518.0000      	19305    	9.08788
520.0000      	19230.8    	8.91497
522.0000      	19157.1    	8.61693
524.0000      	19084    	8.31693
526.0000      	19011.4    	8.12140
528.0000      	18939.4    	7.95702
530.0000      	18867.9    	7.77874
532.0000      	18797    	7.63753
534.0000      	18726.6    	7.49097
536.0000      	18656.7    	7.39084
538.0000      	18587.4    	7.35468
540.0000      	18518.5    	7.29537
542.0000      	18450.2    	7.24443
544.0000      	18382.4    	7.26289
546.0000      	18315    	7.23891
548.0000      	18248.2    	7.22509
550.0000      	18181.8    	7.11938
552.0000      	18115.9    	7.03234
554.0000      	18050.5    	6.91270
556.0000      	17985.6    	6.80463
558.0000      	17921.1    	6.71313
560.0000      	17857.1    	6.51468
562.0000      	17793.6    	6.39370
564.0000      	17730.5    	6.24248
566.0000      	17667.8    	6.17212
568.0000      	17605.6    	6.15016
570.0000      	17543.9    	6.11315
572.0000      	17482.5    	6.14547
574.0000      	17421.6    	6.20719
576.0000      	17361.1    	6.28302
578.0000      	17301    	6.43828
580.0000      	17241.4    	6.65320
582.0000      	17182.1    	6.83366
584.0000      	17123.3    	7.08902
586.0000      	17064.8    	7.33797
588.0000      	17006.8    	7.50359
590.0000      	16949.2    	7.80244
592.0000      	16891.9    	7.96062
594.0000      	16835    	8.05131
596.0000      	16778.5    	8.20611
598.0000      	16722.4    	8.34313
600.0000      	16666.7    	8.32835
602.0000      	16611.3    	8.39501
604.0000      	16556.3    	8.38842
606.0000      	16501.7    	8.38070
608.0000      	16447.4    	8.36602
610.0000      	16393.4    	8.40135
612.0000      	16339.9    	8.47786
614.0000      	16286.6    	8.39914
616.0000      	16233.8    	8.40829
618.0000      	16181.2    	8.49019
620.0000      	16129    	8.52715
622.0000      	16077.2    	8.45332
624.0000      	16025.6    	8.51261
626.0000      	15974.4    	8.60970
628.0000      	15923.6    	8.53729
630.0000      	15873    	8.60475
632.0000      	15822.8    	8.64007
634.0000      	15772.9    	8.68331
636.0000      	15723.3    	8.76692
638.0000      	15674    	8.78025
640.0000      	15625    	8.80357
642.0000      	15576.3    	8.83288
644.0000      	15528    	8.94503
646.0000      	15479.9    	9.04019
648.0000      	15432.1    	9.09769
650.0000      	15384.6    	9.15563
652.0000      	15337.4    	9.30223
654.0000      	15290.5    	9.50419
656.0000      	15243.9    	9.60561
658.0000      	15197.6    	9.68496
660.0000      	15151.5    	9.80521
662.0000      	15105.7    	9.85865
664.0000      	15060.2    	9.87791
666.0000      	15015    	10.15485
668.0000      	14970.1    	10.11998
670.0000      	14925.4    	10.12527
672.0000      	14881    	10.17420
674.0000      	14836.8    	10.11007
676.0000      	14792.9    	10.15289
678.0000      	14749.3    	10.20459
680.0000      	14705.9    	10.13334
682.0000      	14662.8    	10.11884
684.0000      	14619.9    	10.06989
686.0000      	14577.3    	10.02408
688.0000      	14534.9    	10.03788
690.0000      	14492.8    	9.89496
692.0000      	14450.9    	9.83803
694.0000      	14409.2    	9.92078
696.0000      	14367.8    	9.75026
698.0000      	14326.6    	9.69823
700.0000      	14285.7    	9.78977
702.0000      	14245    	9.76712
704.0000      	14204.5    	9.61027
706.0000      	14164.3    	9.46785
708.0000      	14124.3    	9.44648
710.0000      	14084.5    	9.48105
712.0000      	14044.9    	9.38132
714.0000      	14005.6    	9.44846
716.0000      	13966.5    	9.55971
718.0000      	13927.6    	9.63025
720.0000      	13888.9    	9.73716
722.0000      	13850.4    	9.82195
724.0000      	13812.2    	10.01180
726.0000      	13774.1    	10.39064
728.0000      	13736.3    	10.21089
730.0000      	13698.6    	10.43114
732.0000      	13661.2    	10.64802
734.0000      	13624    	10.78576
736.0000      	13587    	11.32415
738.0000      	13550.1    	11.57764
740.0000      	13513.5    	11.84025
742.0000      	13477.1    	12.32562
744.0000      	13440.9    	12.95804
746.0000      	13404.8    	13.41330
748.0000      	13369    	14.07413
750.0000      	13333.3    	14.55360
752.0000      	13297.9    	15.08178
754.0000      	13262.6    	16.00508
756.0000      	13227.5    	16.75432
758.0000      	13192.6    	17.41401
760.0000      	13157.9    	18.31853
762.0000      	13123.4    	18.82398
764.0000      	13089    	19.59641
766.0000      	13054.8    	20.11606
768.0000      	13020.8    	20.32269
770.0000      	12987    	20.65898
772.0000      	12953.4    	21.42388
774.0000      	12919.9    	21.72770
776.0000      	12886.6    	21.78425
778.0000      	12853.5    	21.97638
780.0000      	12820.5    	22.37906
782.0000      	12787.7    	22.23643
784.0000      	12755.1    	22.59826
786.0000      	12722.6    	22.66393
788.0000      	12690.4    	22.85298
790.0000      	12658.2    	23.27570
792.0000      	12626.3    	22.96541
794.0000      	12594.5    	22.89710
796.0000      	12562.8    	23.14842
798.0000      	12531.3    	23.33232
800.0000      	12500    	23.44911